 C22H33O2Cl9 Density=1.508 Thickness=0.179 microns
 Photon Energy (eV), Transmission
    10.000      0.34442E-02
    11.000      0.23519E-03
    12.000      0.15575E-04
    13.000      0.22528E-05
    14.000      0.52577E-06
    15.000      0.19733E-06
    16.000      0.11955E-06
    17.000      0.41686E-08
    18.000      0.66861E-08
    19.000      0.10836E-07
    20.000      0.23250E-07
    21.000      0.69780E-07
    22.000      0.20115E-06
    23.000      0.52582E-06
    24.000      0.19518E-05
    25.000      0.62788E-05
    26.000      0.21207E-04
    27.000      0.63343E-04
    28.000      0.16268E-03
    29.000      0.39018E-03
    30.000      0.89518E-03
    31.000      0.18143E-02
    32.000      0.34983E-02
    33.000      0.67663E-02
    34.000      0.11485E-01
    35.000      0.17644E-01
    36.000      0.24993E-01
    37.000      0.33703E-01
    38.000      0.44264E-01
    39.000      0.56367E-01
    40.000      0.69162E-01
    41.000      0.82565E-01
    42.000      0.94340E-01
    43.000      0.10664    
    44.000      0.11923    
    45.000      0.13106    
    46.000      0.14163    
    47.000      0.15166    
    48.000      0.16139    
    49.000      0.17110    
    50.000      0.18097    
    51.000      0.19065    
    52.000      0.20039    
    53.000      0.21007    
    54.000      0.21875    
    55.000      0.22660    
    56.000      0.23421    
    57.000      0.24158    
    58.000      0.24869    
    59.000      0.25555    
    60.000      0.26238    
    61.000      0.26967    
    62.000      0.27779    
    63.000      0.28600    
    64.000      0.29398    
    65.000      0.30172    
    66.000      0.30920    
    67.000      0.31644    
    68.000      0.32344    
    69.000      0.33090    
    70.000      0.33916    
    71.000      0.34724    
    72.000      0.35516    
    73.000      0.36291    
    74.000      0.37050    
    75.000      0.37793    
    76.000      0.38519    
    77.000      0.39241    
    78.000      0.39979    
    79.000      0.40752    
    80.000      0.41511    
    81.000      0.42256    
    82.000      0.42987    
    83.000      0.43705    
    84.000      0.44410    
    85.000      0.45102    
    86.000      0.45780    
    87.000      0.46446    
    88.000      0.47113    
    89.000      0.47775    
    90.000      0.48429    
    91.000      0.49072    
    92.000      0.49703    
    93.000      0.50322    
    94.000      0.50930    
    95.000      0.51527    
    96.000      0.52112    
    97.000      0.52687    
    98.000      0.53253    
    99.000      0.53813    
    100.00      0.54375    
    101.00      0.54929    
    102.00      0.55473    
    103.00      0.56007    
    104.00      0.56531    
    105.00      0.57075    
    106.00      0.57615    
    107.00      0.58156    
    108.00      0.58688    
    109.00      0.59210    
    110.00      0.59723    
    111.00      0.60227    
    112.00      0.60721    
    113.00      0.61207    
    114.00      0.61684    
    115.00      0.62152    
    116.00      0.62612    
    117.00      0.63064    
    118.00      0.63508    
    119.00      0.63945    
    120.00      0.64373    
    121.00      0.64794    
    122.00      0.65208    
    123.00      0.65614    
    124.00      0.66014    
    125.00      0.66407    
    126.00      0.66792    
    127.00      0.67172    
    128.00      0.67545    
    129.00      0.67911    
    130.00      0.68272    
    131.00      0.68628    
    132.00      0.68980    
    133.00      0.69337    
    134.00      0.69695    
    135.00      0.70046    
    136.00      0.70390    
    137.00      0.70728    
    138.00      0.71061    
    139.00      0.71388    
    140.00      0.71710    
    141.00      0.72026    
    142.00      0.72337    
    143.00      0.72642    
    144.00      0.72943    
    145.00      0.73239    
    146.00      0.73530    
    147.00      0.73816    
    148.00      0.74098    
    149.00      0.74375    
    150.00      0.74648    
    151.00      0.74916    
    152.00      0.75180    
    153.00      0.75440    
    154.00      0.75696    
    155.00      0.75947    
    156.00      0.76204    
    157.00      0.76463    
    158.00      0.76719    
    159.00      0.76972    
    160.00      0.77220    
    161.00      0.77465    
    162.00      0.77706    
    163.00      0.77943    
    164.00      0.78177    
    165.00      0.78406    
    166.00      0.78633    
    167.00      0.78856    
    168.00      0.79076    
    169.00      0.79292    
    170.00      0.79505    
    171.00      0.79715    
    172.00      0.79922    
    173.00      0.80125    
    174.00      0.80326    
    175.00      0.80524    
    176.00      0.80718    
    177.00      0.80910    
    178.00      0.81100    
    179.00      0.81286    
    180.00      0.81471    
    181.00      0.81654    
    182.00      0.81835    
    183.00      0.82017    
    184.00      0.82198    
    185.00      0.82377    
    186.00      0.82561    
    187.00      0.82748    
    188.00      0.82932    
    189.00      0.83114    
    190.00      0.83293    
    191.00      0.83469    
    192.00      0.83643    
    193.00      0.83814    
    194.00      0.83982    
    195.00      0.84148    
    196.00      0.84311    
    197.00      0.84472    
    198.00      0.84630    
    199.00      0.84786    
    200.00      0.70889    
    201.00      0.40617    
    202.00      0.40624    
    203.00      0.40630    
    204.00      0.40636    
    205.00      0.40641    
    206.00      0.40646    
    207.00      0.40650    
    208.00      0.40653    
    209.00      0.40656    
    210.00      0.40659    
    211.00      0.40660    
    212.00      0.40662    
    213.00      0.40663    
    214.00      0.40663    
    215.00      0.40727    
    216.00      0.40811    
    217.00      0.40894    
    218.00      0.41001    
    219.00      0.41169    
    220.00      0.41336    
    221.00      0.41501    
    222.00      0.41665    
    223.00      0.41828    
    224.00      0.41990    
    225.00      0.42151    
    226.00      0.42311    
    227.00      0.42470    
    228.00      0.42628    
    229.00      0.42785    
    230.00      0.42941    
    231.00      0.43097    
    232.00      0.43251    
    233.00      0.43405    
    234.00      0.43557    
    235.00      0.43709    
    236.00      0.43860    
    237.00      0.44010    
    238.00      0.44159    
    239.00      0.44307    
    240.00      0.44454    
    241.00      0.44600    
    242.00      0.44744    
    243.00      0.44889    
    244.00      0.45032    
    245.00      0.45176    
    246.00      0.45319    
    247.00      0.45460    
    248.00      0.45603    
    249.00      0.45747    
    250.00      0.45890    
    251.00      0.46032    
    252.00      0.46173    
    253.00      0.46314    
    254.00      0.46453    
    255.00      0.46592    
    256.00      0.46730    
    257.00      0.46867    
    258.00      0.47003    
    259.00      0.47139    
    260.00      0.47274    
    261.00      0.47408    
    262.00      0.47541    
    263.00      0.47673    
    264.00      0.47805    
    265.00      0.47936    
    266.00      0.48066    
    267.00      0.48196    
    268.00      0.48325    
    269.00      0.48453    
    270.00      0.48580    
    271.00      0.48707    
    272.00      0.48833    
    273.00      0.48973    
    274.00      0.49130    
    275.00      0.49286    
    276.00      0.49442    
    277.00      0.49598    
    278.00      0.49793    
    279.00      0.49986    
    280.00      0.50179    
    281.00      0.50370    
    282.00      0.50574    
    283.00      0.50789    
    284.00      0.51002    
    285.00      0.29697    
    286.00      0.29943    
    287.00      0.30191    
    288.00      0.30438    
    289.00      0.30684    
    290.00      0.30930    
    291.00      0.31175    
    292.00      0.31419    
    293.00      0.31663    
    294.00      0.31907    
    295.00      0.32150    
    296.00      0.32392    
    297.00      0.32633    
    298.00      0.32874    
    299.00      0.33114    
    300.00      0.33353    
    301.00      0.33592    
    302.00      0.33830    
    303.00      0.34068    
    304.00      0.34305    
    305.00      0.34541    
    306.00      0.34776    
    307.00      0.35011    
    308.00      0.35245    
    309.00      0.35478    
    310.00      0.35710    
    311.00      0.35942    
    312.00      0.36173    
    313.00      0.36403    
    314.00      0.36633    
    315.00      0.36862    
    316.00      0.37090    
    317.00      0.37317    
    318.00      0.37544    
    319.00      0.37770    
    320.00      0.37995    
    321.00      0.38219    
    322.00      0.38442    
    323.00      0.38665    
    324.00      0.38887    
    325.00      0.39108    
    326.00      0.39329    
    327.00      0.39548    
    328.00      0.39767    
    329.00      0.39985    
    330.00      0.40202    
    331.00      0.40418    
    332.00      0.40634    
    333.00      0.40849    
    334.00      0.41063    
    335.00      0.41276    
    336.00      0.41489    
    337.00      0.41700    
    338.00      0.41911    
    339.00      0.42121    
    340.00      0.42330    
    341.00      0.42539    
    342.00      0.42747    
    343.00      0.42953    
    344.00      0.43159    
    345.00      0.43365    
    346.00      0.43569    
    347.00      0.43773    
    348.00      0.43975    
    349.00      0.44178    
    350.00      0.44379    
    351.00      0.44579    
    352.00      0.44779    
    353.00      0.44978    
    354.00      0.45176    
    355.00      0.45373    
    356.00      0.45569    
    357.00      0.45765    
    358.00      0.45960    
    359.00      0.46154    
    360.00      0.46347    
    361.00      0.46539    
    362.00      0.46731    
    363.00      0.46922    
    364.00      0.47112    
    365.00      0.47301    
    366.00      0.47490    
    367.00      0.47677    
    368.00      0.47864    
    369.00      0.48051    
    370.00      0.48236    
    371.00      0.48421    
    372.00      0.48604    
    373.00      0.48787    
    374.00      0.48970    
    375.00      0.49151    
    376.00      0.49334    
    377.00      0.49520    
    378.00      0.49706    
    379.00      0.49890    
    380.00      0.50074    
    381.00      0.50257    
    382.00      0.50443    
    383.00      0.50636    
    384.00      0.50829    
    385.00      0.51020    
    386.00      0.51211    
    387.00      0.51401    
    388.00      0.51592    
    389.00      0.51798    
    390.00      0.52003    
    391.00      0.52207    
    392.00      0.52410    
    393.00      0.52613    
    394.00      0.52814    
    395.00      0.53012    
    396.00      0.53209    
    397.00      0.53405    
    398.00      0.53600    
    399.00      0.53794    
    400.00      0.53987    
    401.00      0.54179    
    402.00      0.54370    
    403.00      0.54559    
    404.00      0.54747    
    405.00      0.54935    
    406.00      0.55122    
    407.00      0.55308    
    408.00      0.55493    
    409.00      0.55677    
    410.00      0.55860    
    411.00      0.56042    
    412.00      0.56223    
    413.00      0.56404    
    414.00      0.56585    
    415.00      0.56766    
    416.00      0.56946    
    417.00      0.57126    
    418.00      0.57304    
    419.00      0.57482    
    420.00      0.57659    
    421.00      0.57835    
    422.00      0.58012    
    423.00      0.58187    
    424.00      0.58361    
    425.00      0.58535    
    426.00      0.58708    
    427.00      0.58879    
    428.00      0.59052    
    429.00      0.59224    
    430.00      0.59395    
    431.00      0.59566    
    432.00      0.59735    
    433.00      0.59904    
    434.00      0.60072    
    435.00      0.60239    
    436.00      0.60405    
    437.00      0.60571    
    438.00      0.60735    
    439.00      0.60899    
    440.00      0.61062    
    441.00      0.61224    
    442.00      0.61385    
    443.00      0.61546    
    444.00      0.61706    
    445.00      0.61865    
    446.00      0.62023    
    447.00      0.62180    
    448.00      0.62337    
    449.00      0.62493    
    450.00      0.62649    
    451.00      0.62804    
    452.00      0.62958    
    453.00      0.63111    
    454.00      0.63263    
    455.00      0.63415    
    456.00      0.63566    
    457.00      0.63716    
    458.00      0.63866    
    459.00      0.64015    
    460.00      0.64163    
    461.00      0.64310    
    462.00      0.64456    
    463.00      0.64602    
    464.00      0.64747    
    465.00      0.64892    
    466.00      0.65036    
    467.00      0.65179    
    468.00      0.65321    
    469.00      0.65462    
    470.00      0.65603    
    471.00      0.65743    
    472.00      0.65883    
    473.00      0.66021    
    474.00      0.66159    
    475.00      0.66297    
    476.00      0.66433    
    477.00      0.66569    
    478.00      0.66704    
    479.00      0.66840    
    480.00      0.66975    
    481.00      0.67109    
    482.00      0.67243    
    483.00      0.67376    
    484.00      0.67508    
    485.00      0.67640    
    486.00      0.67771    
    487.00      0.67903    
    488.00      0.68034    
    489.00      0.68165    
    490.00      0.68294    
    491.00      0.68423    
    492.00      0.68552    
    493.00      0.68680    
    494.00      0.68807    
    495.00      0.68933    
    496.00      0.69059    
    497.00      0.69184    
    498.00      0.69309    
    499.00      0.69433    
    500.00      0.69556    
    501.00      0.69679    
    502.00      0.69801    
    503.00      0.69922    
    504.00      0.70044    
    505.00      0.70164    
    506.00      0.70284    
    507.00      0.70403    
    508.00      0.70522    
    509.00      0.70640    
    510.00      0.70757    
    511.00      0.70874    
    512.00      0.70991    
    513.00      0.71107    
    514.00      0.71222    
    515.00      0.71337    
    516.00      0.71451    
    517.00      0.71564    
    518.00      0.71677    
    519.00      0.71790    
    520.00      0.71902    
    521.00      0.72014    
    522.00      0.72125    
    523.00      0.72235    
    524.00      0.72345    
    525.00      0.72454    
    526.00      0.72563    
    527.00      0.72671    
    528.00      0.72779    
    529.00      0.72886    
    530.00      0.72993    
    531.00      0.73099    
    532.00      0.73204    
    533.00      0.73309    
    534.00      0.73414    
    535.00      0.73518    
    536.00      0.73621    
    537.00      0.73725    
    538.00      0.73827    
    539.00      0.73929    
    540.00      0.74031    
    541.00      0.74132    
    542.00      0.74232    
    543.00      0.74332    
    544.00      0.72458    
    545.00      0.72564    
    546.00      0.72669    
    547.00      0.72773    
    548.00      0.72877    
    549.00      0.72981    
    550.00      0.73084    
    551.00      0.73186    
    552.00      0.73288    
    553.00      0.73390    
    554.00      0.73490    
    555.00      0.73591    
    556.00      0.73691    
    557.00      0.73790    
    558.00      0.73889    
    559.00      0.73988    
    560.00      0.74086    
    561.00      0.74184    
    562.00      0.74281    
    563.00      0.74377    
    564.00      0.74473    
    565.00      0.74569    
    566.00      0.74664    
    567.00      0.74759    
    568.00      0.74853    
    569.00      0.74947    
    570.00      0.75041    
    571.00      0.75134    
    572.00      0.75227    
    573.00      0.75319    
    574.00      0.75410    
    575.00      0.75502    
    576.00      0.75593    
    577.00      0.75683    
    578.00      0.75773    
    579.00      0.75863    
    580.00      0.75952    
    581.00      0.76040    
    582.00      0.76129    
    583.00      0.76217    
    584.00      0.76304    
    585.00      0.76391    
    586.00      0.76477    
    587.00      0.76564    
    588.00      0.76649    
    589.00      0.76735    
    590.00      0.76820    
    591.00      0.76904    
    592.00      0.76988    
    593.00      0.77072    
    594.00      0.77155    
    595.00      0.77238    
    596.00      0.77321    
    597.00      0.77403    
    598.00      0.77485    
    599.00      0.77566    
    600.00      0.77647    
    601.00      0.77728    
    602.00      0.77809    
    603.00      0.77889    
    604.00      0.77968    
    605.00      0.78048    
    606.00      0.78126    
    607.00      0.78205    
    608.00      0.78283    
    609.00      0.78361    
    610.00      0.78438    
    611.00      0.78515    
    612.00      0.78592    
    613.00      0.78668    
    614.00      0.78744    
    615.00      0.78820    
    616.00      0.78895    
    617.00      0.78970    
    618.00      0.79045    
    619.00      0.79119    
    620.00      0.79193    
    621.00      0.79267    
    622.00      0.79340    
    623.00      0.79413    
    624.00      0.79485    
    625.00      0.79558    
    626.00      0.79629    
    627.00      0.79701    
    628.00      0.79772    
    629.00      0.79843    
    630.00      0.79914    
    631.00      0.79985    
    632.00      0.80055    
    633.00      0.80125    
    634.00      0.80195    
    635.00      0.80264    
    636.00      0.80333    
    637.00      0.80402    
    638.00      0.80470    
    639.00      0.80538    
    640.00      0.80606    
    641.00      0.80674    
    642.00      0.80741    
    643.00      0.80808    
    644.00      0.80875    
    645.00      0.80941    
    646.00      0.81007    
    647.00      0.81073    
    648.00      0.81138    
    649.00      0.81204    
    650.00      0.81269    
    651.00      0.81334    
    652.00      0.81398    
    653.00      0.81462    
    654.00      0.81526    
    655.00      0.81590    
    656.00      0.81653    
    657.00      0.81716    
    658.00      0.81779    
    659.00      0.81841    
    660.00      0.81903    
    661.00      0.81966    
    662.00      0.82027    
    663.00      0.82089    
    664.00      0.82150    
    665.00      0.82211    
    666.00      0.82272    
    667.00      0.82332    
    668.00      0.82392    
    669.00      0.82452    
    670.00      0.82511    
    671.00      0.82569    
    672.00      0.82627    
    673.00      0.82685    
    674.00      0.82743    
    675.00      0.82800    
    676.00      0.82858    
    677.00      0.82914    
    678.00      0.82971    
    679.00      0.83027    
    680.00      0.83084    
    681.00      0.83139    
    682.00      0.83194    
    683.00      0.83248    
    684.00      0.83303    
    685.00      0.83357    
    686.00      0.83411    
    687.00      0.83465    
    688.00      0.83518    
    689.00      0.83571    
    690.00      0.83624    
    691.00      0.83677    
    692.00      0.83729    
    693.00      0.83782    
    694.00      0.83834    
    695.00      0.83886    
    696.00      0.83937    
    697.00      0.83989    
    698.00      0.84040    
    699.00      0.84091    
    700.00      0.84141    
    701.00      0.84192    
    702.00      0.84242    
    703.00      0.84293    
    704.00      0.84345    
    705.00      0.84396    
    706.00      0.84447    
    707.00      0.84498    
    708.00      0.84549    
    709.00      0.84600    
    710.00      0.84650    
    711.00      0.84700    
    712.00      0.84750    
    713.00      0.84799    
    714.00      0.84849    
    715.00      0.84900    
    716.00      0.84950    
    717.00      0.85000    
    718.00      0.85049    
    719.00      0.85099    
    720.00      0.85148    
    721.00      0.85197    
    722.00      0.85246    
    723.00      0.85295    
    724.00      0.85343    
    725.00      0.85391    
    726.00      0.85439    
    727.00      0.85487    
    728.00      0.85535    
    729.00      0.85582    
    730.00      0.85629    
    731.00      0.85676    
    732.00      0.85723    
    733.00      0.85770    
    734.00      0.85816    
    735.00      0.85862    
    736.00      0.85908    
    737.00      0.85954    
    738.00      0.85999    
    739.00      0.86045    
    740.00      0.86090    
    741.00      0.86135    
    742.00      0.86180    
    743.00      0.86224    
    744.00      0.86269    
    745.00      0.86313    
    746.00      0.86357    
    747.00      0.86401    
    748.00      0.86445    
    749.00      0.86488    
    750.00      0.86532    
    751.00      0.86575    
    752.00      0.86618    
    753.00      0.86661    
    754.00      0.86703    
    755.00      0.86746    
    756.00      0.86788    
    757.00      0.86830    
    758.00      0.86872    
    759.00      0.86914    
    760.00      0.86955    
    761.00      0.86997    
    762.00      0.87038    
    763.00      0.87079    
    764.00      0.87120    
    765.00      0.87161    
    766.00      0.87202    
    767.00      0.87242    
    768.00      0.87282    
    769.00      0.87322    
    770.00      0.87362    
    771.00      0.87402    
    772.00      0.87442    
    773.00      0.87481    
    774.00      0.87520    
    775.00      0.87560    
    776.00      0.87599    
    777.00      0.87638    
    778.00      0.87676    
    779.00      0.87715    
    780.00      0.87753    
    781.00      0.87791    
    782.00      0.87829    
    783.00      0.87867    
    784.00      0.87905    
    785.00      0.87943    
    786.00      0.87980    
    787.00      0.88017    
    788.00      0.88055    
    789.00      0.88092    
    790.00      0.88129    
    791.00      0.88165    
    792.00      0.88202    
    793.00      0.88238    
    794.00      0.88275    
    795.00      0.88311    
    796.00      0.88347    
    797.00      0.88382    
    798.00      0.88418    
    799.00      0.88454    
    800.00      0.88489    
    801.00      0.88524    
    802.00      0.88560    
    803.00      0.88595    
    804.00      0.88629    
    805.00      0.88664    
    806.00      0.88699    
    807.00      0.88733    
    808.00      0.88768    
    809.00      0.88802    
    810.00      0.88836    
    811.00      0.88870    
    812.00      0.88903    
    813.00      0.88937    
    814.00      0.88970    
    815.00      0.89004    
    816.00      0.89037    
    817.00      0.89070    
    818.00      0.89103    
    819.00      0.89136    
    820.00      0.89169    
    821.00      0.89201    
    822.00      0.89234    
    823.00      0.89266    
    824.00      0.89298    
    825.00      0.89330    
    826.00      0.89362    
    827.00      0.89394    
    828.00      0.89426    
    829.00      0.89457    
    830.00      0.89489    
    831.00      0.89520    
    832.00      0.89551    
    833.00      0.89582    
    834.00      0.89613    
    835.00      0.89644    
    836.00      0.89675    
    837.00      0.89705    
    838.00      0.89736    
    839.00      0.89766    
    840.00      0.89796    
    841.00      0.89826    
    842.00      0.89856    
    843.00      0.89886    
    844.00      0.89916    
    845.00      0.89945    
    846.00      0.89975    
    847.00      0.90004    
    848.00      0.90033    
    849.00      0.90062    
    850.00      0.90091    
    851.00      0.90120    
    852.00      0.90149    
    853.00      0.90177    
    854.00      0.90206    
    855.00      0.90234    
    856.00      0.90263    
    857.00      0.90291    
    858.00      0.90319    
    859.00      0.90347    
    860.00      0.90375    
    861.00      0.90403    
    862.00      0.90430    
    863.00      0.90458    
    864.00      0.90485    
    865.00      0.90513    
    866.00      0.90540    
    867.00      0.90567    
    868.00      0.90594    
    869.00      0.90621    
    870.00      0.90648    
    871.00      0.90674    
    872.00      0.90701    
    873.00      0.90728    
    874.00      0.90754    
    875.00      0.90780    
    876.00      0.90807    
    877.00      0.90833    
    878.00      0.90859    
    879.00      0.90885    
    880.00      0.90911    
    881.00      0.90936    
    882.00      0.90962    
    883.00      0.90988    
    884.00      0.91013    
    885.00      0.91039    
    886.00      0.91064    
    887.00      0.91089    
    888.00      0.91114    
    889.00      0.91139    
    890.00      0.91164    
    891.00      0.91189    
    892.00      0.91214    
    893.00      0.91239    
    894.00      0.91263    
    895.00      0.91288    
    896.00      0.91312    
    897.00      0.91336    
    898.00      0.91360    
    899.00      0.91384    
    900.00      0.91408    
    901.00      0.91432    
    902.00      0.91456    
    903.00      0.91480    
    904.00      0.91503    
    905.00      0.91527    
    906.00      0.91550    
    907.00      0.91574    
    908.00      0.91597    
    909.00      0.91620    
    910.00      0.91643    
    911.00      0.91666    
    912.00      0.91689    
    913.00      0.91712    
    914.00      0.91735    
    915.00      0.91757    
    916.00      0.91780    
    917.00      0.91802    
    918.00      0.91825    
    919.00      0.91847    
    920.00      0.91869    
    921.00      0.91891    
    922.00      0.91914    
    923.00      0.91936    
    924.00      0.91958    
    925.00      0.91980    
    926.00      0.92002    
    927.00      0.92024    
    928.00      0.92046    
    929.00      0.92068    
    930.00      0.92089    
    931.00      0.92111    
    932.00      0.92132    
    933.00      0.92154    
    934.00      0.92175    
    935.00      0.92197    
    936.00      0.92218    
    937.00      0.92239    
    938.00      0.92260    
    939.00      0.92281    
    940.00      0.92302    
    941.00      0.92323    
    942.00      0.92344    
    943.00      0.92364    
    944.00      0.92385    
    945.00      0.92406    
    946.00      0.92426    
    947.00      0.92447    
    948.00      0.92467    
    949.00      0.92487    
    950.00      0.92507    
    951.00      0.92527    
    952.00      0.92548    
    953.00      0.92568    
    954.00      0.92587    
    955.00      0.92607    
    956.00      0.92627    
    957.00      0.92647    
    958.00      0.92667    
    959.00      0.92686    
    960.00      0.92706    
    961.00      0.92725    
    962.00      0.92744    
    963.00      0.92764    
    964.00      0.92783    
    965.00      0.92802    
    966.00      0.92821    
    967.00      0.92840    
    968.00      0.92859    
    969.00      0.92878    
    970.00      0.92897    
    971.00      0.92915    
    972.00      0.92934    
    973.00      0.92953    
    974.00      0.92971    
    975.00      0.92989    
    976.00      0.93008    
    977.00      0.93026    
    978.00      0.93044    
    979.00      0.93062    
    980.00      0.93081    
    981.00      0.93099    
    982.00      0.93116    
    983.00      0.93134    
    984.00      0.93152    
    985.00      0.93170    
    986.00      0.93188    
    987.00      0.93205    
    988.00      0.93223    
    989.00      0.93241    
    990.00      0.93258    
    991.00      0.93276    
    992.00      0.93293    
    993.00      0.93310    
    994.00      0.93328    
    995.00      0.93345    
    996.00      0.93362    
    997.00      0.93379    
    998.00      0.93396    
    999.00      0.93413    
    1000.0      0.93430    
    1001.0      0.93447    
    1002.0      0.93464    
    1003.0      0.93481    
    1004.0      0.93497    
    1005.0      0.93514    
    1006.0      0.93531    
    1007.0      0.93547    
    1008.0      0.93564    
    1009.0      0.93580    
    1010.0      0.93596    
    1011.0      0.93613    
    1012.0      0.93629    
    1013.0      0.93645    
    1014.0      0.93661    
    1015.0      0.93677    
    1016.0      0.93694    
    1017.0      0.93709    
    1018.0      0.93725    
    1019.0      0.93741    
    1020.0      0.93757    
    1021.0      0.93773    
    1022.0      0.93788    
    1023.0      0.93804    
    1024.0      0.93820    
    1025.0      0.93835    
    1026.0      0.93851    
    1027.0      0.93866    
    1028.0      0.93881    
    1029.0      0.93897    
    1030.0      0.93912    
    1031.0      0.93927    
    1032.0      0.93942    
    1033.0      0.93957    
    1034.0      0.93973    
    1035.0      0.93988    
    1036.0      0.94003    
    1037.0      0.94018    
    1038.0      0.94033    
    1039.0      0.94047    
    1040.0      0.94062    
    1041.0      0.94077    
    1042.0      0.94092    
    1043.0      0.94106    
    1044.0      0.94121    
    1045.0      0.94136    
    1046.0      0.94150    
    1047.0      0.94165    
    1048.0      0.94179    
    1049.0      0.94193    
    1050.0      0.94208    
    1051.0      0.94222    
    1052.0      0.94236    
    1053.0      0.94251    
    1054.0      0.94265    
    1055.0      0.94279    
    1056.0      0.94293    
    1057.0      0.94307    
    1058.0      0.94321    
    1059.0      0.94335    
    1060.0      0.94349    
    1061.0      0.94363    
    1062.0      0.94377    
    1063.0      0.94391    
    1064.0      0.94404    
    1065.0      0.94418    
    1066.0      0.94432    
    1067.0      0.94445    
    1068.0      0.94459    
    1069.0      0.94472    
    1070.0      0.94486    
    1071.0      0.94499    
    1072.0      0.94513    
    1073.0      0.94526    
    1074.0      0.94539    
    1075.0      0.94552    
    1076.0      0.94566    
    1077.0      0.94579    
    1078.0      0.94592    
    1079.0      0.94605    
    1080.0      0.94618    
    1081.0      0.94631    
    1082.0      0.94644    
    1083.0      0.94657    
    1084.0      0.94670    
    1085.0      0.94683    
    1086.0      0.94695    
    1087.0      0.94708    
    1088.0      0.94721    
    1089.0      0.94734    
    1090.0      0.94746    
    1091.0      0.94759    
    1092.0      0.94771    
    1093.0      0.94784    
    1094.0      0.94796    
    1095.0      0.94809    
    1096.0      0.94821    
    1097.0      0.94833    
    1098.0      0.94846    
    1099.0      0.94858    
    1100.0      0.94870    
    1101.0      0.94882    
    1102.0      0.94895    
    1103.0      0.94907    
    1104.0      0.94919    
    1105.0      0.94931    
    1106.0      0.94943    
    1107.0      0.94955    
    1108.0      0.94967    
    1109.0      0.94979    
    1110.0      0.94991    
    1111.0      0.95002    
    1112.0      0.95014    
    1113.0      0.95026    
    1114.0      0.95038    
    1115.0      0.95049    
    1116.0      0.95061    
    1117.0      0.95073    
    1118.0      0.95084    
    1119.0      0.95096    
    1120.0      0.95107    
    1121.0      0.95119    
    1122.0      0.95130    
    1123.0      0.95142    
    1124.0      0.95153    
    1125.0      0.95164    
    1126.0      0.95176    
    1127.0      0.95187    
    1128.0      0.95198    
    1129.0      0.95209    
    1130.0      0.95220    
    1131.0      0.95231    
    1132.0      0.95242    
    1133.0      0.95254    
    1134.0      0.95265    
    1135.0      0.95276    
    1136.0      0.95286    
    1137.0      0.95297    
    1138.0      0.95308    
    1139.0      0.95319    
    1140.0      0.95330    
    1141.0      0.95341    
    1142.0      0.95351    
    1143.0      0.95362    
    1144.0      0.95373    
    1145.0      0.95383    
    1146.0      0.95394    
    1147.0      0.95404    
    1148.0      0.95415    
    1149.0      0.95425    
    1150.0      0.95436    
    1151.0      0.95446    
    1152.0      0.95457    
    1153.0      0.95467    
    1154.0      0.95477    
    1155.0      0.95488    
    1156.0      0.95498    
    1157.0      0.95508    
    1158.0      0.95519    
    1159.0      0.95529    
    1160.0      0.95539    
    1161.0      0.95549    
    1162.0      0.95559    
    1163.0      0.95569    
    1164.0      0.95579    
    1165.0      0.95589    
    1166.0      0.95599    
    1167.0      0.95609    
    1168.0      0.95619    
    1169.0      0.95629    
    1170.0      0.95639    
    1171.0      0.95648    
    1172.0      0.95658    
    1173.0      0.95668    
    1174.0      0.95678    
    1175.0      0.95687    
    1176.0      0.95697    
    1177.0      0.95707    
    1178.0      0.95716    
    1179.0      0.95726    
    1180.0      0.95735    
    1181.0      0.95745    
    1182.0      0.95754    
    1183.0      0.95764    
    1184.0      0.95773    
    1185.0      0.95783    
    1186.0      0.95792    
    1187.0      0.95801    
    1188.0      0.95811    
    1189.0      0.95820    
    1190.0      0.95829    
    1191.0      0.95839    
    1192.0      0.95848    
    1193.0      0.95857    
    1194.0      0.95866    
    1195.0      0.95875    
    1196.0      0.95884    
    1197.0      0.95893    
    1198.0      0.95903    
    1199.0      0.95912    
    1200.0      0.95921    
    1201.0      0.95930    
    1202.0      0.95938    
    1203.0      0.95947    
    1204.0      0.95956    
    1205.0      0.95965    
    1206.0      0.95974    
    1207.0      0.95983    
    1208.0      0.95992    
    1209.0      0.96000    
    1210.0      0.96009    
    1211.0      0.96018    
    1212.0      0.96027    
    1213.0      0.96035    
    1214.0      0.96044    
    1215.0      0.96053    
    1216.0      0.96061    
    1217.0      0.96070    
    1218.0      0.96078    
    1219.0      0.96087    
    1220.0      0.96095    
    1221.0      0.96104    
    1222.0      0.96112    
    1223.0      0.96121    
    1224.0      0.96129    
    1225.0      0.96137    
    1226.0      0.96146    
    1227.0      0.96154    
    1228.0      0.96162    
    1229.0      0.96171    
    1230.0      0.96179    
    1231.0      0.96187    
    1232.0      0.96195    
    1233.0      0.96204    
    1234.0      0.96212    
    1235.0      0.96220    
    1236.0      0.96228    
    1237.0      0.96236    
    1238.0      0.96244    
    1239.0      0.96252    
    1240.0      0.96260    
    1241.0      0.96269    
    1242.0      0.96276    
    1243.0      0.96284    
    1244.0      0.96292    
    1245.0      0.96300    
    1246.0      0.96308    
    1247.0      0.96316    
    1248.0      0.96324    
    1249.0      0.96332    
    1250.0      0.96340    
    1251.0      0.96347    
    1252.0      0.96355    
    1253.0      0.96363    
    1254.0      0.96371    
    1255.0      0.96378    
    1256.0      0.96386    
    1257.0      0.96394    
    1258.0      0.96401    
    1259.0      0.96409    
    1260.0      0.96417    
    1261.0      0.96424    
    1262.0      0.96432    
    1263.0      0.96439    
    1264.0      0.96447    
    1265.0      0.96454    
    1266.0      0.96462    
    1267.0      0.96469    
    1268.0      0.96477    
    1269.0      0.96484    
    1270.0      0.96492    
    1271.0      0.96499    
    1272.0      0.96506    
    1273.0      0.96514    
    1274.0      0.96521    
    1275.0      0.96528    
    1276.0      0.96536    
    1277.0      0.96543    
    1278.0      0.96550    
    1279.0      0.96557    
    1280.0      0.96565    
    1281.0      0.96572    
    1282.0      0.96579    
    1283.0      0.96586    
    1284.0      0.96593    
    1285.0      0.96600    
    1286.0      0.96607    
    1287.0      0.96614    
    1288.0      0.96621    
    1289.0      0.96629    
    1290.0      0.96636    
    1291.0      0.96643    
    1292.0      0.96649    
    1293.0      0.96656    
    1294.0      0.96663    
    1295.0      0.96670    
    1296.0      0.96677    
    1297.0      0.96684    
    1298.0      0.96691    
    1299.0      0.96698    
    1300.0      0.96705    
    1301.0      0.96711    
    1302.0      0.96718    
    1303.0      0.96725    
    1304.0      0.96732    
    1305.0      0.96738    
    1306.0      0.96745    
    1307.0      0.96752    
    1308.0      0.96759    
    1309.0      0.96765    
    1310.0      0.96772    
    1311.0      0.96778    
    1312.0      0.96785    
    1313.0      0.96792    
    1314.0      0.96798    
    1315.0      0.96805    
    1316.0      0.96811    
    1317.0      0.96818    
    1318.0      0.96824    
    1319.0      0.96831    
    1320.0      0.96837    
    1321.0      0.96844    
    1322.0      0.96850    
    1323.0      0.96857    
    1324.0      0.96863    
    1325.0      0.96869    
    1326.0      0.96876    
    1327.0      0.96882    
    1328.0      0.96888    
    1329.0      0.96895    
    1330.0      0.96901    
    1331.0      0.96907    
    1332.0      0.96913    
    1333.0      0.96920    
    1334.0      0.96926    
    1335.0      0.96932    
    1336.0      0.96938    
    1337.0      0.96944    
    1338.0      0.96951    
    1339.0      0.96957    
    1340.0      0.96963    
    1341.0      0.96969    
    1342.0      0.96975    
    1343.0      0.96981    
    1344.0      0.96987    
    1345.0      0.96993    
    1346.0      0.96999    
    1347.0      0.97005    
    1348.0      0.97011    
    1349.0      0.97017    
    1350.0      0.97023    
    1351.0      0.97029    
    1352.0      0.97035    
    1353.0      0.97041    
    1354.0      0.97047    
    1355.0      0.97053    
    1356.0      0.97058    
    1357.0      0.97064    
    1358.0      0.97070    
    1359.0      0.97076    
    1360.0      0.97082    
    1361.0      0.97087    
    1362.0      0.97093    
    1363.0      0.97099    
    1364.0      0.97105    
    1365.0      0.97110    
    1366.0      0.97116    
    1367.0      0.97122    
    1368.0      0.97127    
    1369.0      0.97133    
    1370.0      0.97139    
    1371.0      0.97144    
    1372.0      0.97150    
    1373.0      0.97155    
    1374.0      0.97161    
    1375.0      0.97167    
    1376.0      0.97172    
    1377.0      0.97178    
    1378.0      0.97183    
    1379.0      0.97189    
    1380.0      0.97194    
    1381.0      0.97200    
    1382.0      0.97205    
    1383.0      0.97211    
    1384.0      0.97216    
    1385.0      0.97221    
    1386.0      0.97227    
    1387.0      0.97232    
    1388.0      0.97238    
    1389.0      0.97243    
    1390.0      0.97248    
    1391.0      0.97254    
    1392.0      0.97259    
    1393.0      0.97264    
    1394.0      0.97270    
    1395.0      0.97275    
    1396.0      0.97280    
    1397.0      0.97285    
    1398.0      0.97291    
    1399.0      0.97296    
    1400.0      0.97301    
    1401.0      0.97306    
    1402.0      0.97311    
    1403.0      0.97317    
    1404.0      0.97322    
    1405.0      0.97327    
    1406.0      0.97332    
    1407.0      0.97337    
    1408.0      0.97342    
    1409.0      0.97347    
    1410.0      0.97352    
    1411.0      0.97358    
    1412.0      0.97363    
    1413.0      0.97368    
    1414.0      0.97373    
    1415.0      0.97378    
    1416.0      0.97383    
    1417.0      0.97388    
    1418.0      0.97393    
    1419.0      0.97398    
    1420.0      0.97403    
    1421.0      0.97407    
    1422.0      0.97412    
    1423.0      0.97417    
    1424.0      0.97422    
    1425.0      0.97427    
    1426.0      0.97432    
    1427.0      0.97437    
    1428.0      0.97442    
    1429.0      0.97447    
    1430.0      0.97451    
    1431.0      0.97456    
    1432.0      0.97461    
    1433.0      0.97466    
    1434.0      0.97471    
    1435.0      0.97475    
    1436.0      0.97480    
    1437.0      0.97485    
    1438.0      0.97490    
    1439.0      0.97494    
    1440.0      0.97499    
    1441.0      0.97504    
    1442.0      0.97508    
    1443.0      0.97513    
    1444.0      0.97518    
    1445.0      0.97522    
    1446.0      0.97527    
    1447.0      0.97531    
    1448.0      0.97536    
    1449.0      0.97541    
    1450.0      0.97545    
    1451.0      0.97550    
    1452.0      0.97554    
    1453.0      0.97559    
    1454.0      0.97564    
    1455.0      0.97568    
    1456.0      0.97573    
    1457.0      0.97577    
    1458.0      0.97582    
    1459.0      0.97586    
    1460.0      0.97591    
    1461.0      0.97595    
    1462.0      0.97599    
    1463.0      0.97604    
    1464.0      0.97608    
    1465.0      0.97613    
    1466.0      0.97617    
    1467.0      0.97621    
    1468.0      0.97626    
    1469.0      0.97630    
    1470.0      0.97635    
    1471.0      0.97639    
    1472.0      0.97643    
    1473.0      0.97648    
    1474.0      0.97652    
    1475.0      0.97656    
    1476.0      0.97661    
    1477.0      0.97665    
    1478.0      0.97669    
    1479.0      0.97673    
    1480.0      0.97678    
    1481.0      0.97682    
    1482.0      0.97686    
    1483.0      0.97690    
    1484.0      0.97695    
    1485.0      0.97699    
    1486.0      0.97703    
    1487.0      0.97707    
    1488.0      0.97711    
    1489.0      0.97716    
    1490.0      0.97720    
    1491.0      0.97724    
    1492.0      0.97728    
    1493.0      0.97732    
    1494.0      0.97736    
    1495.0      0.97740    
    1496.0      0.97744    
    1497.0      0.97748    
    1498.0      0.97752    
    1499.0      0.97756    
    1500.0      0.97760    
    1501.0      0.97765    
    1502.0      0.97769    
    1503.0      0.97773    
    1504.0      0.97777    
    1505.0      0.97780    
    1506.0      0.97784    
    1507.0      0.97788    
    1508.0      0.97792    
    1509.0      0.97796    
    1510.0      0.97800    
    1511.0      0.97804    
    1512.0      0.97808    
    1513.0      0.97812    
    1514.0      0.97816    
    1515.0      0.97820    
    1516.0      0.97824    
    1517.0      0.97828    
    1518.0      0.97831    
    1519.0      0.97835    
    1520.0      0.97839    
    1521.0      0.97843    
    1522.0      0.97847    
    1523.0      0.97850    
    1524.0      0.97854    
    1525.0      0.97858    
    1526.0      0.97862    
    1527.0      0.97866    
    1528.0      0.97869    
    1529.0      0.97873    
    1530.0      0.97877    
    1531.0      0.97881    
    1532.0      0.97884    
    1533.0      0.97888    
    1534.0      0.97892    
    1535.0      0.97895    
    1536.0      0.97899    
    1537.0      0.97903    
    1538.0      0.97906    
    1539.0      0.97910    
    1540.0      0.97914    
    1541.0      0.97917    
    1542.0      0.97921    
    1543.0      0.97925    
    1544.0      0.97928    
    1545.0      0.97932    
    1546.0      0.97935    
    1547.0      0.97939    
    1548.0      0.97943    
    1549.0      0.97946    
    1550.0      0.97950    
    1551.0      0.97953    
    1552.0      0.97957    
    1553.0      0.97960    
    1554.0      0.97964    
    1555.0      0.97967    
    1556.0      0.97971    
    1557.0      0.97975    
    1558.0      0.97978    
    1559.0      0.97982    
    1560.0      0.97985    
    1561.0      0.97988    
    1562.0      0.97992    
    1563.0      0.97995    
    1564.0      0.97999    
    1565.0      0.98002    
    1566.0      0.98006    
    1567.0      0.98009    
    1568.0      0.98013    
    1569.0      0.98016    
    1570.0      0.98019    
    1571.0      0.98023    
    1572.0      0.98026    
    1573.0      0.98030    
    1574.0      0.98033    
    1575.0      0.98036    
    1576.0      0.98040    
    1577.0      0.98043    
    1578.0      0.98046    
    1579.0      0.98050    
    1580.0      0.98053    
    1581.0      0.98056    
    1582.0      0.98060    
    1583.0      0.98063    
    1584.0      0.98066    
    1585.0      0.98069    
    1586.0      0.98073    
    1587.0      0.98076    
    1588.0      0.98079    
    1589.0      0.98082    
    1590.0      0.98086    
    1591.0      0.98089    
    1592.0      0.98092    
    1593.0      0.98095    
    1594.0      0.98099    
    1595.0      0.98102    
    1596.0      0.98105    
    1597.0      0.98108    
    1598.0      0.98111    
    1599.0      0.98115    
    1600.0      0.98118    
    1601.0      0.98121    
    1602.0      0.98124    
    1603.0      0.98127    
    1604.0      0.98130    
    1605.0      0.98134    
    1606.0      0.98137    
    1607.0      0.98140    
    1608.0      0.98143    
    1609.0      0.98146    
    1610.0      0.98149    
    1611.0      0.98152    
    1612.0      0.98155    
    1613.0      0.98158    
    1614.0      0.98161    
    1615.0      0.98165    
    1616.0      0.98168    
    1617.0      0.98171    
    1618.0      0.98174    
    1619.0      0.98177    
    1620.0      0.98180    
    1621.0      0.98183    
    1622.0      0.98186    
    1623.0      0.98189    
    1624.0      0.98192    
    1625.0      0.98195    
    1626.0      0.98198    
    1627.0      0.98201    
    1628.0      0.98204    
    1629.0      0.98207    
    1630.0      0.98210    
    1631.0      0.98213    
    1632.0      0.98216    
    1633.0      0.98219    
    1634.0      0.98221    
    1635.0      0.98224    
    1636.0      0.98227    
    1637.0      0.98230    
    1638.0      0.98233    
    1639.0      0.98236    
    1640.0      0.98239    
    1641.0      0.98242    
    1642.0      0.98245    
    1643.0      0.98248    
    1644.0      0.98250    
    1645.0      0.98253    
    1646.0      0.98256    
    1647.0      0.98259    
    1648.0      0.98262    
    1649.0      0.98265    
    1650.0      0.98268    
    1651.0      0.98270    
    1652.0      0.98273    
    1653.0      0.98276    
    1654.0      0.98279    
    1655.0      0.98282    
    1656.0      0.98284    
    1657.0      0.98287    
    1658.0      0.98290    
    1659.0      0.98293    
    1660.0      0.98296    
    1661.0      0.98298    
    1662.0      0.98301    
    1663.0      0.98304    
    1664.0      0.98307    
    1665.0      0.98309    
    1666.0      0.98312    
    1667.0      0.98315    
    1668.0      0.98317    
    1669.0      0.98320    
    1670.0      0.98323    
    1671.0      0.98326    
    1672.0      0.98328    
    1673.0      0.98331    
    1674.0      0.98334    
    1675.0      0.98336    
    1676.0      0.98339    
    1677.0      0.98342    
    1678.0      0.98344    
    1679.0      0.98347    
    1680.0      0.98350    
    1681.0      0.98352    
    1682.0      0.98355    
    1683.0      0.98358    
    1684.0      0.98360    
    1685.0      0.98363    
    1686.0      0.98365    
    1687.0      0.98368    
    1688.0      0.98371    
    1689.0      0.98373    
    1690.0      0.98376    
    1691.0      0.98378    
    1692.0      0.98381    
    1693.0      0.98384    
    1694.0      0.98386    
    1695.0      0.98389    
    1696.0      0.98391    
    1697.0      0.98394    
    1698.0      0.98396    
    1699.0      0.98399    
    1700.0      0.98401    
    1701.0      0.98404    
    1702.0      0.98407    
    1703.0      0.98409    
    1704.0      0.98412    
    1705.0      0.98414    
    1706.0      0.98417    
    1707.0      0.98419    
    1708.0      0.98422    
    1709.0      0.98424    
    1710.0      0.98427    
    1711.0      0.98429    
    1712.0      0.98432    
    1713.0      0.98434    
    1714.0      0.98436    
    1715.0      0.98439    
    1716.0      0.98441    
    1717.0      0.98444    
    1718.0      0.98446    
    1719.0      0.98449    
    1720.0      0.98451    
    1721.0      0.98454    
    1722.0      0.98456    
    1723.0      0.98458    
    1724.0      0.98461    
    1725.0      0.98463    
    1726.0      0.98466    
    1727.0      0.98468    
    1728.0      0.98470    
    1729.0      0.98473    
    1730.0      0.98475    
    1731.0      0.98478    
    1732.0      0.98480    
    1733.0      0.98482    
    1734.0      0.98485    
    1735.0      0.98487    
    1736.0      0.98490    
    1737.0      0.98492    
    1738.0      0.98494    
    1739.0      0.98497    
    1740.0      0.98499    
    1741.0      0.98501    
    1742.0      0.98504    
    1743.0      0.98506    
    1744.0      0.98508    
    1745.0      0.98511    
    1746.0      0.98513    
    1747.0      0.98515    
    1748.0      0.98518    
    1749.0      0.98520    
    1750.0      0.98522    
    1751.0      0.98524    
    1752.0      0.98527    
    1753.0      0.98529    
    1754.0      0.98531    
    1755.0      0.98534    
    1756.0      0.98536    
    1757.0      0.98538    
    1758.0      0.98540    
    1759.0      0.98543    
    1760.0      0.98545    
    1761.0      0.98547    
    1762.0      0.98549    
    1763.0      0.98552    
    1764.0      0.98554    
    1765.0      0.98556    
    1766.0      0.98558    
    1767.0      0.98561    
    1768.0      0.98563    
    1769.0      0.98565    
    1770.0      0.98567    
    1771.0      0.98569    
    1772.0      0.98572    
    1773.0      0.98574    
    1774.0      0.98576    
    1775.0      0.98578    
    1776.0      0.98580    
    1777.0      0.98583    
    1778.0      0.98585    
    1779.0      0.98587    
    1780.0      0.98589    
    1781.0      0.98591    
    1782.0      0.98593    
    1783.0      0.98596    
    1784.0      0.98598    
    1785.0      0.98600    
    1786.0      0.98602    
    1787.0      0.98604    
    1788.0      0.98606    
    1789.0      0.98608    
    1790.0      0.98611    
    1791.0      0.98613    
    1792.0      0.98615    
    1793.0      0.98617    
    1794.0      0.98619    
    1795.0      0.98621    
    1796.0      0.98623    
    1797.0      0.98625    
    1798.0      0.98627    
    1799.0      0.98629    
    1800.0      0.98632    
    1801.0      0.98634    
    1802.0      0.98636    
    1803.0      0.98638    
    1804.0      0.98640    
    1805.0      0.98642    
    1806.0      0.98644    
    1807.0      0.98646    
    1808.0      0.98648    
    1809.0      0.98650    
    1810.0      0.98652    
    1811.0      0.98654    
    1812.0      0.98656    
    1813.0      0.98658    
    1814.0      0.98660    
    1815.0      0.98662    
    1816.0      0.98664    
    1817.0      0.98666    
    1818.0      0.98668    
    1819.0      0.98670    
    1820.0      0.98672    
    1821.0      0.98674    
    1822.0      0.98676    
    1823.0      0.98678    
    1824.0      0.98680    
    1825.0      0.98682    
    1826.0      0.98684    
    1827.0      0.98686    
    1828.0      0.98688    
    1829.0      0.98690    
    1830.0      0.98692    
    1831.0      0.98694    
    1832.0      0.98696    
    1833.0      0.98698    
    1834.0      0.98700    
    1835.0      0.98702    
    1836.0      0.98704    
    1837.0      0.98706    
    1838.0      0.98708    
    1839.0      0.98709    
    1840.0      0.98711    
    1841.0      0.98713    
    1842.0      0.98715    
    1843.0      0.98717    
    1844.0      0.98719    
    1845.0      0.98721    
    1846.0      0.98723    
    1847.0      0.98725    
    1848.0      0.98727    
    1849.0      0.98728    
    1850.0      0.98730    
    1851.0      0.98732    
    1852.0      0.98734    
    1853.0      0.98736    
    1854.0      0.98738    
    1855.0      0.98740    
    1856.0      0.98742    
    1857.0      0.98743    
    1858.0      0.98745    
    1859.0      0.98747    
    1860.0      0.98749    
    1861.0      0.98751    
    1862.0      0.98753    
    1863.0      0.98754    
    1864.0      0.98756    
    1865.0      0.98758    
    1866.0      0.98760    
    1867.0      0.98762    
    1868.0      0.98764    
    1869.0      0.98765    
    1870.0      0.98767    
    1871.0      0.98769    
    1872.0      0.98771    
    1873.0      0.98773    
    1874.0      0.98774    
    1875.0      0.98776    
    1876.0      0.98778    
    1877.0      0.98780    
    1878.0      0.98781    
    1879.0      0.98783    
    1880.0      0.98785    
    1881.0      0.98787    
    1882.0      0.98789    
    1883.0      0.98790    
    1884.0      0.98792    
    1885.0      0.98794    
    1886.0      0.98796    
    1887.0      0.98797    
    1888.0      0.98799    
    1889.0      0.98801    
    1890.0      0.98803    
    1891.0      0.98804    
    1892.0      0.98806    
    1893.0      0.98808    
    1894.0      0.98809    
    1895.0      0.98811    
    1896.0      0.98813    
    1897.0      0.98815    
    1898.0      0.98816    
    1899.0      0.98818    
    1900.0      0.98820    
    1901.0      0.98821    
    1902.0      0.98823    
    1903.0      0.98825    
    1904.0      0.98826    
    1905.0      0.98828    
    1906.0      0.98830    
    1907.0      0.98831    
    1908.0      0.98833    
    1909.0      0.98835    
    1910.0      0.98837    
    1911.0      0.98838    
    1912.0      0.98840    
    1913.0      0.98842    
    1914.0      0.98843    
    1915.0      0.98845    
    1916.0      0.98846    
    1917.0      0.98848    
    1918.0      0.98850    
    1919.0      0.98851    
    1920.0      0.98853    
    1921.0      0.98855    
    1922.0      0.98856    
    1923.0      0.98858    
    1924.0      0.98860    
    1925.0      0.98861    
    1926.0      0.98863    
    1927.0      0.98864    
    1928.0      0.98866    
    1929.0      0.98868    
    1930.0      0.98869    
    1931.0      0.98871    
    1932.0      0.98872    
    1933.0      0.98874    
    1934.0      0.98876    
    1935.0      0.98877    
    1936.0      0.98879    
    1937.0      0.98880    
    1938.0      0.98882    
    1939.0      0.98884    
    1940.0      0.98885    
    1941.0      0.98887    
    1942.0      0.98888    
    1943.0      0.98890    
    1944.0      0.98891    
    1945.0      0.98893    
    1946.0      0.98894    
    1947.0      0.98896    
    1948.0      0.98898    
    1949.0      0.98899    
    1950.0      0.98901    
    1951.0      0.98902    
    1952.0      0.98904    
    1953.0      0.98905    
    1954.0      0.98907    
    1955.0      0.98908    
    1956.0      0.98910    
    1957.0      0.98911    
    1958.0      0.98913    
    1959.0      0.98914    
    1960.0      0.98916    
    1961.0      0.98917    
    1962.0      0.98919    
    1963.0      0.98920    
    1964.0      0.98922    
    1965.0      0.98923    
    1966.0      0.98925    
    1967.0      0.98926    
    1968.0      0.98928    
    1969.0      0.98929    
    1970.0      0.98931    
    1971.0      0.98932    
    1972.0      0.98934    
    1973.0      0.98935    
    1974.0      0.98937    
    1975.0      0.98938    
    1976.0      0.98940    
    1977.0      0.98941    
    1978.0      0.98943    
    1979.0      0.98944    
    1980.0      0.98946    
    1981.0      0.98947    
    1982.0      0.98949    
    1983.0      0.98950    
    1984.0      0.98951    
    1985.0      0.98953    
    1986.0      0.98954    
    1987.0      0.98956    
    1988.0      0.98957    
    1989.0      0.98959    
    1990.0      0.98960    
    1991.0      0.98962    
    1992.0      0.98963    
    1993.0      0.98964    
    1994.0      0.98966    
    1995.0      0.98968    
    1996.0      0.98969    
    1997.0      0.98971    
    1998.0      0.98973    
    1999.0      0.98974    
    2000.0      0.98976    
    2001.0      0.98978    
    2002.0      0.98979    
    2003.0      0.98981    
    2004.0      0.98982    
    2005.0      0.98984    
    2006.0      0.98986    
    2007.0      0.98987    
    2008.0      0.98989    
    2009.0      0.98990    
    2010.0      0.98992    
    2011.0      0.98994    
    2012.0      0.98995    
    2013.0      0.98997    
    2014.0      0.98998    
    2015.0      0.99000    
    2016.0      0.99002    
    2017.0      0.99003    
    2018.0      0.99005    
    2019.0      0.99006    
    2020.0      0.99008    
    2021.0      0.99009    
    2022.0      0.99011    
    2023.0      0.99013    
    2024.0      0.99014    
    2025.0      0.99016    
    2026.0      0.99017    
    2027.0      0.99018    
    2028.0      0.99020    
    2029.0      0.99021    
    2030.0      0.99022    
    2031.0      0.99024    
    2032.0      0.99025    
    2033.0      0.99026    
    2034.0      0.99028    
    2035.0      0.99029    
    2036.0      0.99030    
    2037.0      0.99032    
    2038.0      0.99033    
    2039.0      0.99034    
    2040.0      0.99036    
    2041.0      0.99037    
    2042.0      0.99038    
    2043.0      0.99040    
    2044.0      0.99041    
    2045.0      0.99042    
    2046.0      0.99044    
    2047.0      0.99045    
    2048.0      0.99046    
    2049.0      0.99047    
    2050.0      0.99049    
    2051.0      0.99050    
    2052.0      0.99051    
    2053.0      0.99053    
    2054.0      0.99054    
    2055.0      0.99055    
    2056.0      0.99056    
    2057.0      0.99058    
    2058.0      0.99059    
    2059.0      0.99060    
    2060.0      0.99061    
    2061.0      0.99063    
    2062.0      0.99064    
    2063.0      0.99065    
    2064.0      0.99066    
    2065.0      0.99068    
    2066.0      0.99069    
    2067.0      0.99070    
    2068.0      0.99071    
    2069.0      0.99073    
    2070.0      0.99074    
    2071.0      0.99075    
    2072.0      0.99076    
    2073.0      0.99078    
    2074.0      0.99079    
    2075.0      0.99080    
    2076.0      0.99081    
    2077.0      0.99082    
    2078.0      0.99084    
    2079.0      0.99085    
    2080.0      0.99086    
    2081.0      0.99087    
    2082.0      0.99089    
    2083.0      0.99090    
    2084.0      0.99091    
    2085.0      0.99092    
    2086.0      0.99093    
    2087.0      0.99095    
    2088.0      0.99096    
    2089.0      0.99097    
    2090.0      0.99098    
    2091.0      0.99099    
    2092.0      0.99101    
    2093.0      0.99102    
    2094.0      0.99103    
    2095.0      0.99104    
    2096.0      0.99105    
    2097.0      0.99106    
    2098.0      0.99108    
    2099.0      0.99109    
    2100.0      0.99110    
    2101.0      0.99111    
    2102.0      0.99112    
    2103.0      0.99114    
    2104.0      0.99115    
    2105.0      0.99116    
    2106.0      0.99117    
    2107.0      0.99118    
    2108.0      0.99119    
    2109.0      0.99121    
    2110.0      0.99122    
    2111.0      0.99123    
    2112.0      0.99124    
    2113.0      0.99125    
    2114.0      0.99126    
    2115.0      0.99127    
    2116.0      0.99129    
    2117.0      0.99130    
    2118.0      0.99131    
    2119.0      0.99132    
    2120.0      0.99133    
    2121.0      0.99134    
    2122.0      0.99135    
    2123.0      0.99136    
    2124.0      0.99138    
    2125.0      0.99139    
    2126.0      0.99140    
    2127.0      0.99141    
    2128.0      0.99142    
    2129.0      0.99143    
    2130.0      0.99144    
    2131.0      0.99145    
    2132.0      0.99147    
    2133.0      0.99148    
    2134.0      0.99149    
    2135.0      0.99150    
    2136.0      0.99151    
    2137.0      0.99152    
    2138.0      0.99153    
    2139.0      0.99154    
    2140.0      0.99155    
    2141.0      0.99156    
    2142.0      0.99158    
    2143.0      0.99159    
    2144.0      0.99160    
    2145.0      0.99161    
    2146.0      0.99162    
    2147.0      0.99163    
    2148.0      0.99164    
    2149.0      0.99165    
    2150.0      0.99166    
    2151.0      0.99167    
    2152.0      0.99168    
    2153.0      0.99169    
    2154.0      0.99171    
    2155.0      0.99172    
    2156.0      0.99173    
    2157.0      0.99174    
    2158.0      0.99175    
    2159.0      0.99176    
    2160.0      0.99177    
    2161.0      0.99178    
    2162.0      0.99179    
    2163.0      0.99180    
    2164.0      0.99181    
    2165.0      0.99182    
    2166.0      0.99183    
    2167.0      0.99184    
    2168.0      0.99185    
    2169.0      0.99186    
    2170.0      0.99187    
    2171.0      0.99188    
    2172.0      0.99189    
    2173.0      0.99190    
    2174.0      0.99192    
    2175.0      0.99193    
    2176.0      0.99194    
    2177.0      0.99195    
    2178.0      0.99196    
    2179.0      0.99197    
    2180.0      0.99198    
    2181.0      0.99199    
    2182.0      0.99200    
    2183.0      0.99201    
    2184.0      0.99202    
    2185.0      0.99203    
    2186.0      0.99204    
    2187.0      0.99205    
    2188.0      0.99206    
    2189.0      0.99207    
    2190.0      0.99208    
    2191.0      0.99209    
    2192.0      0.99210    
    2193.0      0.99211    
    2194.0      0.99212    
    2195.0      0.99213    
    2196.0      0.99214    
    2197.0      0.99215    
    2198.0      0.99216    
    2199.0      0.99217    
    2200.0      0.99218    
    2201.0      0.99219    
    2202.0      0.99220    
    2203.0      0.99221    
    2204.0      0.99222    
    2205.0      0.99223    
    2206.0      0.99224    
    2207.0      0.99225    
    2208.0      0.99226    
    2209.0      0.99227    
    2210.0      0.99228    
    2211.0      0.99229    
    2212.0      0.99230    
    2213.0      0.99231    
    2214.0      0.99232    
    2215.0      0.99232    
    2216.0      0.99233    
    2217.0      0.99234    
    2218.0      0.99235    
    2219.0      0.99236    
    2220.0      0.99237    
    2221.0      0.99238    
    2222.0      0.99239    
    2223.0      0.99240    
    2224.0      0.99241    
    2225.0      0.99242    
    2226.0      0.99243    
    2227.0      0.99244    
    2228.0      0.99245    
    2229.0      0.99246    
    2230.0      0.99247    
    2231.0      0.99248    
    2232.0      0.99249    
    2233.0      0.99250    
    2234.0      0.99251    
    2235.0      0.99251    
    2236.0      0.99252    
    2237.0      0.99253    
    2238.0      0.99254    
    2239.0      0.99255    
    2240.0      0.99256    
    2241.0      0.99257    
    2242.0      0.99258    
    2243.0      0.99259    
    2244.0      0.99260    
    2245.0      0.99261    
    2246.0      0.99262    
    2247.0      0.99263    
    2248.0      0.99263    
    2249.0      0.99264    
    2250.0      0.99265    
    2251.0      0.99266    
    2252.0      0.99267    
    2253.0      0.99268    
    2254.0      0.99269    
    2255.0      0.99270    
    2256.0      0.99271    
    2257.0      0.99272    
    2258.0      0.99273    
    2259.0      0.99273    
    2260.0      0.99274    
    2261.0      0.99275    
    2262.0      0.99276    
    2263.0      0.99277    
    2264.0      0.99278    
    2265.0      0.99279    
    2266.0      0.99280    
    2267.0      0.99281    
    2268.0      0.99281    
    2269.0      0.99282    
    2270.0      0.99283    
    2271.0      0.99284    
    2272.0      0.99285    
    2273.0      0.99286    
    2274.0      0.99287    
    2275.0      0.99288    
    2276.0      0.99288    
    2277.0      0.99289    
    2278.0      0.99290    
    2279.0      0.99291    
    2280.0      0.99292    
    2281.0      0.99293    
    2282.0      0.99294    
    2283.0      0.99295    
    2284.0      0.99295    
    2285.0      0.99296    
    2286.0      0.99297    
    2287.0      0.99298    
    2288.0      0.99299    
    2289.0      0.99300    
    2290.0      0.99301    
    2291.0      0.99301    
    2292.0      0.99302    
    2293.0      0.99303    
    2294.0      0.99304    
    2295.0      0.99305    
    2296.0      0.99306    
    2297.0      0.99307    
    2298.0      0.99307    
    2299.0      0.99308    
    2300.0      0.99309    
    2301.0      0.99310    
    2302.0      0.99311    
    2303.0      0.99312    
    2304.0      0.99312    
    2305.0      0.99313    
    2306.0      0.99314    
    2307.0      0.99315    
    2308.0      0.99316    
    2309.0      0.99317    
    2310.0      0.99317    
    2311.0      0.99318    
    2312.0      0.99319    
    2313.0      0.99320    
    2314.0      0.99321    
    2315.0      0.99322    
    2316.0      0.99322    
    2317.0      0.99323    
    2318.0      0.99324    
    2319.0      0.99325    
    2320.0      0.99326    
    2321.0      0.99326    
    2322.0      0.99327    
    2323.0      0.99328    
    2324.0      0.99329    
    2325.0      0.99330    
    2326.0      0.99330    
    2327.0      0.99331    
    2328.0      0.99332    
    2329.0      0.99333    
    2330.0      0.99334    
    2331.0      0.99334    
    2332.0      0.99335    
    2333.0      0.99336    
    2334.0      0.99337    
    2335.0      0.99338    
    2336.0      0.99338    
    2337.0      0.99339    
    2338.0      0.99340    
    2339.0      0.99341    
    2340.0      0.99342    
    2341.0      0.99342    
    2342.0      0.99343    
    2343.0      0.99344    
    2344.0      0.99345    
    2345.0      0.99346    
    2346.0      0.99346    
    2347.0      0.99347    
    2348.0      0.99348    
    2349.0      0.99349    
    2350.0      0.99349    
    2351.0      0.99350    
    2352.0      0.99351    
    2353.0      0.99352    
    2354.0      0.99353    
    2355.0      0.99353    
    2356.0      0.99354    
    2357.0      0.99355    
    2358.0      0.99356    
    2359.0      0.99356    
    2360.0      0.99357    
    2361.0      0.99358    
    2362.0      0.99359    
    2363.0      0.99359    
    2364.0      0.99360    
    2365.0      0.99361    
    2366.0      0.99362    
    2367.0      0.99363    
    2368.0      0.99363    
    2369.0      0.99364    
    2370.0      0.99365    
    2371.0      0.99366    
    2372.0      0.99366    
    2373.0      0.99367    
    2374.0      0.99368    
    2375.0      0.99369    
    2376.0      0.99369    
    2377.0      0.99370    
    2378.0      0.99371    
    2379.0      0.99372    
    2380.0      0.99372    
    2381.0      0.99373    
    2382.0      0.99374    
    2383.0      0.99374    
    2384.0      0.99375    
    2385.0      0.99376    
    2386.0      0.99377    
    2387.0      0.99377    
    2388.0      0.99378    
    2389.0      0.99379    
    2390.0      0.99380    
    2391.0      0.99380    
    2392.0      0.99381    
    2393.0      0.99382    
    2394.0      0.99383    
    2395.0      0.99383    
    2396.0      0.99384    
    2397.0      0.99385    
    2398.0      0.99385    
    2399.0      0.99386    
    2400.0      0.99387    
    2401.0      0.99388    
    2402.0      0.99388    
    2403.0      0.99389    
    2404.0      0.99390    
    2405.0      0.99390    
    2406.0      0.99391    
    2407.0      0.99392    
    2408.0      0.99393    
    2409.0      0.99393    
    2410.0      0.99394    
    2411.0      0.99395    
    2412.0      0.99395    
    2413.0      0.99396    
    2414.0      0.99397    
    2415.0      0.99398    
    2416.0      0.99398    
    2417.0      0.99399    
    2418.0      0.99400    
    2419.0      0.99400    
    2420.0      0.99401    
    2421.0      0.99402    
    2422.0      0.99402    
    2423.0      0.99403    
    2424.0      0.99404    
    2425.0      0.99405    
    2426.0      0.99405    
    2427.0      0.99406    
    2428.0      0.99407    
    2429.0      0.99407    
    2430.0      0.99408    
    2431.0      0.99409    
    2432.0      0.99409    
    2433.0      0.99410    
    2434.0      0.99411    
    2435.0      0.99411    
    2436.0      0.99412    
    2437.0      0.99413    
    2438.0      0.99413    
    2439.0      0.99414    
    2440.0      0.99415    
    2441.0      0.99415    
    2442.0      0.99416    
    2443.0      0.99417    
    2444.0      0.99417    
    2445.0      0.99418    
    2446.0      0.99419    
    2447.0      0.99419    
    2448.0      0.99420    
    2449.0      0.99421    
    2450.0      0.99421    
    2451.0      0.99422    
    2452.0      0.99423    
    2453.0      0.99423    
    2454.0      0.99424    
    2455.0      0.99425    
    2456.0      0.99425    
    2457.0      0.99426    
    2458.0      0.99427    
    2459.0      0.99427    
    2460.0      0.99428    
    2461.0      0.99429    
    2462.0      0.99429    
    2463.0      0.99430    
    2464.0      0.99431    
    2465.0      0.99431    
    2466.0      0.99432    
    2467.0      0.99433    
    2468.0      0.99433    
    2469.0      0.99434    
    2470.0      0.99435    
    2471.0      0.99435    
    2472.0      0.99436    
    2473.0      0.99437    
    2474.0      0.99437    
    2475.0      0.99438    
    2476.0      0.99438    
    2477.0      0.99439    
    2478.0      0.99440    
    2479.0      0.99440    
    2480.0      0.99441    
    2481.0      0.99442    
    2482.0      0.99442    
    2483.0      0.99443    
    2484.0      0.99444    
    2485.0      0.99444    
    2486.0      0.99445    
    2487.0      0.99445    
    2488.0      0.99446    
    2489.0      0.99447    
    2490.0      0.99447    
    2491.0      0.99448    
    2492.0      0.99449    
    2493.0      0.99449    
    2494.0      0.99450    
    2495.0      0.99450    
    2496.0      0.99451    
    2497.0      0.99452    
    2498.0      0.99452    
    2499.0      0.99453    
    2500.0      0.99454    
    2501.0      0.99454    
    2502.0      0.99455    
    2503.0      0.99455    
    2504.0      0.99456    
    2505.0      0.99457    
    2506.0      0.99457    
    2507.0      0.99458    
    2508.0      0.99459    
    2509.0      0.99459    
    2510.0      0.99460    
    2511.0      0.99460    
    2512.0      0.99461    
    2513.0      0.99462    
    2514.0      0.99462    
    2515.0      0.99463    
    2516.0      0.99463    
    2517.0      0.99464    
    2518.0      0.99465    
    2519.0      0.99465    
    2520.0      0.99466    
    2521.0      0.99466    
    2522.0      0.99467    
    2523.0      0.99468    
    2524.0      0.99468    
    2525.0      0.99469    
    2526.0      0.99469    
    2527.0      0.99470    
    2528.0      0.99471    
    2529.0      0.99471    
    2530.0      0.99472    
    2531.0      0.99472    
    2532.0      0.99473    
    2533.0      0.99474    
    2534.0      0.99474    
    2535.0      0.99475    
    2536.0      0.99475    
    2537.0      0.99476    
    2538.0      0.99476    
    2539.0      0.99477    
    2540.0      0.99478    
    2541.0      0.99478    
    2542.0      0.99479    
    2543.0      0.99479    
    2544.0      0.99480    
    2545.0      0.99481    
    2546.0      0.99481    
    2547.0      0.99482    
    2548.0      0.99482    
    2549.0      0.99483    
    2550.0      0.99483    
    2551.0      0.99484    
    2552.0      0.99485    
    2553.0      0.99485    
    2554.0      0.99486    
    2555.0      0.99486    
    2556.0      0.99487    
    2557.0      0.99487    
    2558.0      0.99488    
    2559.0      0.99489    
    2560.0      0.99489    
    2561.0      0.99490    
    2562.0      0.99490    
    2563.0      0.99491    
    2564.0      0.99491    
    2565.0      0.99492    
    2566.0      0.99493    
    2567.0      0.99493    
    2568.0      0.99494    
    2569.0      0.99494    
    2570.0      0.99495    
    2571.0      0.99495    
    2572.0      0.99496    
    2573.0      0.99496    
    2574.0      0.99497    
    2575.0      0.99498    
    2576.0      0.99498    
    2577.0      0.99499    
    2578.0      0.99499    
    2579.0      0.99500    
    2580.0      0.99500    
    2581.0      0.99501    
    2582.0      0.99501    
    2583.0      0.99502    
    2584.0      0.99503    
    2585.0      0.99503    
    2586.0      0.99504    
    2587.0      0.99504    
    2588.0      0.99505    
    2589.0      0.99505    
    2590.0      0.99506    
    2591.0      0.99506    
    2592.0      0.99507    
    2593.0      0.99507    
    2594.0      0.99508    
    2595.0      0.99509    
    2596.0      0.99509    
    2597.0      0.99510    
    2598.0      0.99510    
    2599.0      0.99511    
    2600.0      0.99511    
    2601.0      0.99512    
    2602.0      0.99512    
    2603.0      0.99513    
    2604.0      0.99513    
    2605.0      0.99514    
    2606.0      0.99514    
    2607.0      0.99515    
    2608.0      0.99515    
    2609.0      0.99516    
    2610.0      0.99517    
    2611.0      0.99517    
    2612.0      0.99518    
    2613.0      0.99518    
    2614.0      0.99519    
    2615.0      0.99519    
    2616.0      0.99520    
    2617.0      0.99520    
    2618.0      0.99521    
    2619.0      0.99521    
    2620.0      0.99522    
    2621.0      0.99522    
    2622.0      0.99523    
    2623.0      0.99523    
    2624.0      0.99524    
    2625.0      0.99524    
    2626.0      0.99525    
    2627.0      0.99525    
    2628.0      0.99526    
    2629.0      0.99526    
    2630.0      0.99527    
    2631.0      0.99527    
    2632.0      0.99528    
    2633.0      0.99528    
    2634.0      0.99529    
    2635.0      0.99530    
    2636.0      0.99530    
    2637.0      0.99531    
    2638.0      0.99531    
    2639.0      0.99532    
    2640.0      0.99532    
    2641.0      0.99533    
    2642.0      0.99533    
    2643.0      0.99534    
    2644.0      0.99534    
    2645.0      0.99535    
    2646.0      0.99535    
    2647.0      0.99536    
    2648.0      0.99536    
    2649.0      0.99537    
    2650.0      0.99537    
    2651.0      0.99538    
    2652.0      0.99538    
    2653.0      0.99539    
    2654.0      0.99539    
    2655.0      0.99540    
    2656.0      0.99540    
    2657.0      0.99541    
    2658.0      0.99541    
    2659.0      0.99542    
    2660.0      0.99542    
    2661.0      0.99543    
    2662.0      0.99543    
    2663.0      0.99543    
    2664.0      0.99544    
    2665.0      0.99544    
    2666.0      0.99545    
    2667.0      0.99545    
    2668.0      0.99546    
    2669.0      0.99546    
    2670.0      0.99547    
    2671.0      0.99547    
    2672.0      0.99548    
    2673.0      0.99548    
    2674.0      0.99549    
    2675.0      0.99549    
    2676.0      0.99550    
    2677.0      0.99550    
    2678.0      0.99551    
    2679.0      0.99551    
    2680.0      0.99552    
    2681.0      0.99552    
    2682.0      0.99553    
    2683.0      0.99553    
    2684.0      0.99554    
    2685.0      0.99554    
    2686.0      0.99555    
    2687.0      0.99555    
    2688.0      0.99556    
    2689.0      0.99556    
    2690.0      0.99557    
    2691.0      0.99557    
    2692.0      0.99557    
    2693.0      0.99558    
    2694.0      0.99558    
    2695.0      0.99559    
    2696.0      0.99559    
    2697.0      0.99560    
    2698.0      0.99560    
    2699.0      0.99561    
    2700.0      0.99561    
    2701.0      0.99562    
    2702.0      0.99562    
    2703.0      0.99563    
    2704.0      0.99563    
    2705.0      0.99564    
    2706.0      0.99564    
    2707.0      0.99564    
    2708.0      0.99565    
    2709.0      0.99565    
    2710.0      0.99566    
    2711.0      0.99566    
    2712.0      0.99567    
    2713.0      0.99567    
    2714.0      0.99568    
    2715.0      0.99568    
    2716.0      0.99569    
    2717.0      0.99569    
    2718.0      0.99569    
    2719.0      0.99570    
    2720.0      0.99570    
    2721.0      0.99571    
    2722.0      0.99571    
    2723.0      0.99572    
    2724.0      0.99572    
    2725.0      0.99573    
    2726.0      0.99573    
    2727.0      0.99574    
    2728.0      0.99574    
    2729.0      0.99574    
    2730.0      0.99575    
    2731.0      0.99575    
    2732.0      0.99576    
    2733.0      0.99576    
    2734.0      0.99577    
    2735.0      0.99577    
    2736.0      0.99578    
    2737.0      0.99578    
    2738.0      0.99578    
    2739.0      0.99579    
    2740.0      0.99579    
    2741.0      0.99580    
    2742.0      0.99580    
    2743.0      0.99581    
    2744.0      0.99581    
    2745.0      0.99582    
    2746.0      0.99582    
    2747.0      0.99582    
    2748.0      0.99583    
    2749.0      0.99583    
    2750.0      0.99584    
    2751.0      0.99584    
    2752.0      0.99585    
    2753.0      0.99585    
    2754.0      0.99585    
    2755.0      0.99586    
    2756.0      0.99586    
    2757.0      0.99587    
    2758.0      0.99587    
    2759.0      0.99588    
    2760.0      0.99588    
    2761.0      0.99588    
    2762.0      0.99589    
    2763.0      0.99589    
    2764.0      0.99590    
    2765.0      0.99590    
    2766.0      0.99591    
    2767.0      0.99591    
    2768.0      0.99591    
    2769.0      0.99592    
    2770.0      0.99592    
    2771.0      0.99593    
    2772.0      0.99593    
    2773.0      0.99594    
    2774.0      0.99594    
    2775.0      0.99594    
    2776.0      0.99595    
    2777.0      0.99595    
    2778.0      0.99596    
    2779.0      0.99596    
    2780.0      0.99597    
    2781.0      0.99597    
    2782.0      0.99597    
    2783.0      0.99598    
    2784.0      0.99598    
    2785.0      0.99599    
    2786.0      0.99599    
    2787.0      0.99599    
    2788.0      0.99600    
    2789.0      0.99600    
    2790.0      0.99601    
    2791.0      0.99601    
    2792.0      0.99602    
    2793.0      0.99602    
    2794.0      0.99602    
    2795.0      0.99603    
    2796.0      0.99603    
    2797.0      0.99604    
    2798.0      0.99604    
    2799.0      0.99604    
    2800.0      0.99605    
    2801.0      0.99605    
    2802.0      0.99606    
    2803.0      0.99606    
    2804.0      0.99606    
    2805.0      0.99607    
    2806.0      0.99607    
    2807.0      0.99608    
    2808.0      0.99608    
    2809.0      0.99608    
    2810.0      0.99609    
    2811.0      0.99609    
    2812.0      0.99610    
    2813.0      0.99610    
    2814.0      0.99610    
    2815.0      0.99611    
    2816.0      0.99611    
    2817.0      0.99612    
    2818.0      0.99612    
    2819.0      0.99612    
    2820.0      0.99613    
    2821.0      0.99613    
    2822.0      0.99614    
    2823.0      0.97578    
    2824.0      0.97580    
    2825.0      0.97582    
    2826.0      0.97585    
    2827.0      0.97587    
    2828.0      0.97589    
    2829.0      0.97591    
    2830.0      0.97593    
    2831.0      0.97595    
    2832.0      0.97597    
    2833.0      0.97599    
    2834.0      0.97601    
    2835.0      0.97603    
    2836.0      0.97605    
    2837.0      0.97607    
    2838.0      0.97609    
    2839.0      0.97612    
    2840.0      0.97614    
    2841.0      0.97616    
    2842.0      0.97618    
    2843.0      0.97620    
    2844.0      0.97622    
    2845.0      0.97624    
    2846.0      0.97626    
    2847.0      0.97628    
    2848.0      0.97630    
    2849.0      0.97632    
    2850.0      0.97634    
    2851.0      0.97636    
    2852.0      0.97638    
    2853.0      0.97640    
    2854.0      0.97642    
    2855.0      0.97644    
    2856.0      0.97646    
    2857.0      0.97648    
    2858.0      0.97650    
    2859.0      0.97652    
    2860.0      0.97654    
    2861.0      0.97656    
    2862.0      0.97658    
    2863.0      0.97660    
    2864.0      0.97662    
    2865.0      0.97664    
    2866.0      0.97666    
    2867.0      0.97668    
    2868.0      0.97670    
    2869.0      0.97672    
    2870.0      0.97674    
    2871.0      0.97676    
    2872.0      0.97678    
    2873.0      0.97680    
    2874.0      0.97682    
    2875.0      0.97684    
    2876.0      0.97686    
    2877.0      0.97688    
    2878.0      0.97690    
    2879.0      0.97692    
    2880.0      0.97694    
    2881.0      0.97696    
    2882.0      0.97698    
    2883.0      0.97700    
    2884.0      0.97702    
    2885.0      0.97704    
    2886.0      0.97706    
    2887.0      0.97708    
    2888.0      0.97710    
    2889.0      0.97712    
    2890.0      0.97714    
    2891.0      0.97716    
    2892.0      0.97718    
    2893.0      0.97720    
    2894.0      0.97721    
    2895.0      0.97723    
    2896.0      0.97725    
    2897.0      0.97727    
    2898.0      0.97729    
    2899.0      0.97731    
    2900.0      0.97733    
    2901.0      0.97735    
    2902.0      0.97737    
    2903.0      0.97739    
    2904.0      0.97741    
    2905.0      0.97743    
    2906.0      0.97745    
    2907.0      0.97747    
    2908.0      0.97748    
    2909.0      0.97750    
    2910.0      0.97752    
    2911.0      0.97754    
    2912.0      0.97756    
    2913.0      0.97758    
    2914.0      0.97760    
    2915.0      0.97762    
    2916.0      0.97764    
    2917.0      0.97766    
    2918.0      0.97767    
    2919.0      0.97769    
    2920.0      0.97771    
    2921.0      0.97773    
    2922.0      0.97775    
    2923.0      0.97777    
    2924.0      0.97779    
    2925.0      0.97781    
    2926.0      0.97782    
    2927.0      0.97784    
    2928.0      0.97786    
    2929.0      0.97788    
    2930.0      0.97790    
    2931.0      0.97792    
    2932.0      0.97794    
    2933.0      0.97795    
    2934.0      0.97797    
    2935.0      0.97799    
    2936.0      0.97801    
    2937.0      0.97803    
    2938.0      0.97805    
    2939.0      0.97807    
    2940.0      0.97808    
    2941.0      0.97810    
    2942.0      0.97812    
    2943.0      0.97814    
    2944.0      0.97816    
    2945.0      0.97818    
    2946.0      0.97820    
    2947.0      0.97821    
    2948.0      0.97823    
    2949.0      0.97825    
    2950.0      0.97827    
    2951.0      0.97829    
    2952.0      0.97830    
    2953.0      0.97832    
    2954.0      0.97834    
    2955.0      0.97836    
    2956.0      0.97838    
    2957.0      0.97840    
    2958.0      0.97841    
    2959.0      0.97843    
    2960.0      0.97845    
    2961.0      0.97847    
    2962.0      0.97849    
    2963.0      0.97850    
    2964.0      0.97852    
    2965.0      0.97854    
    2966.0      0.97856    
    2967.0      0.97858    
    2968.0      0.97859    
    2969.0      0.97861    
    2970.0      0.97863    
    2971.0      0.97865    
    2972.0      0.97866    
    2973.0      0.97868    
    2974.0      0.97870    
    2975.0      0.97872    
    2976.0      0.97874    
    2977.0      0.97875    
    2978.0      0.97877    
    2979.0      0.97879    
    2980.0      0.97881    
    2981.0      0.97882    
    2982.0      0.97884    
    2983.0      0.97886    
    2984.0      0.97888    
    2985.0      0.97889    
    2986.0      0.97891    
    2987.0      0.97893    
    2988.0      0.97895    
    2989.0      0.97896    
    2990.0      0.97898    
    2991.0      0.97900    
    2992.0      0.97902    
    2993.0      0.97903    
    2994.0      0.97905    
    2995.0      0.97907    
    2996.0      0.97909    
    2997.0      0.97910    
    2998.0      0.97912    
    2999.0      0.97914    
    3000.0      0.97916    
    3001.0      0.97917    
    3002.0      0.97919    
    3003.0      0.97921    
    3004.0      0.97922    
    3005.0      0.97924    
    3006.0      0.97926    
    3007.0      0.97928    
    3008.0      0.97929    
    3009.0      0.97931    
    3010.0      0.97933    
    3011.0      0.97934    
    3012.0      0.97936    
    3013.0      0.97938    
    3014.0      0.97940    
    3015.0      0.97941    
    3016.0      0.97943    
    3017.0      0.97945    
    3018.0      0.97946    
    3019.0      0.97948    
    3020.0      0.97950    
    3021.0      0.97951    
    3022.0      0.97953    
    3023.0      0.97955    
    3024.0      0.97956    
    3025.0      0.97958    
    3026.0      0.97960    
    3027.0      0.97962    
    3028.0      0.97963    
    3029.0      0.97965    
    3030.0      0.97967    
    3031.0      0.97968    
    3032.0      0.97970    
    3033.0      0.97972    
    3034.0      0.97973    
    3035.0      0.97975    
    3036.0      0.97977    
    3037.0      0.97978    
    3038.0      0.97980    
    3039.0      0.97982    
    3040.0      0.97983    
    3041.0      0.97985    
    3042.0      0.97987    
    3043.0      0.97988    
    3044.0      0.97990    
    3045.0      0.97992    
    3046.0      0.97993    
    3047.0      0.97995    
    3048.0      0.97997    
    3049.0      0.97998    
    3050.0      0.98000    
    3051.0      0.98001    
    3052.0      0.98003    
    3053.0      0.98005    
    3054.0      0.98006    
    3055.0      0.98008    
    3056.0      0.98010    
    3057.0      0.98011    
    3058.0      0.98013    
    3059.0      0.98014    
    3060.0      0.98016    
    3061.0      0.98018    
    3062.0      0.98019    
    3063.0      0.98021    
    3064.0      0.98023    
    3065.0      0.98024    
    3066.0      0.98026    
    3067.0      0.98027    
    3068.0      0.98029    
    3069.0      0.98031    
    3070.0      0.98032    
    3071.0      0.98034    
    3072.0      0.98035    
    3073.0      0.98037    
    3074.0      0.98039    
    3075.0      0.98040    
    3076.0      0.98042    
    3077.0      0.98043    
    3078.0      0.98045    
    3079.0      0.98047    
    3080.0      0.98048    
    3081.0      0.98050    
    3082.0      0.98051    
    3083.0      0.98053    
    3084.0      0.98055    
    3085.0      0.98056    
    3086.0      0.98058    
    3087.0      0.98059    
    3088.0      0.98061    
    3089.0      0.98063    
    3090.0      0.98064    
    3091.0      0.98066    
    3092.0      0.98067    
    3093.0      0.98069    
    3094.0      0.98070    
    3095.0      0.98072    
    3096.0      0.98073    
    3097.0      0.98075    
    3098.0      0.98077    
    3099.0      0.98078    
    3100.0      0.98080    
    3101.0      0.98081    
    3102.0      0.98083    
    3103.0      0.98084    
    3104.0      0.98086    
    3105.0      0.98087    
    3106.0      0.98089    
    3107.0      0.98091    
    3108.0      0.98092    
    3109.0      0.98094    
    3110.0      0.98095    
    3111.0      0.98097    
    3112.0      0.98098    
    3113.0      0.98100    
    3114.0      0.98101    
    3115.0      0.98103    
    3116.0      0.98104    
    3117.0      0.98106    
    3118.0      0.98107    
    3119.0      0.98109    
    3120.0      0.98111    
    3121.0      0.98112    
    3122.0      0.98114    
    3123.0      0.98115    
    3124.0      0.98117    
    3125.0      0.98118    
    3126.0      0.98120    
    3127.0      0.98121    
    3128.0      0.98123    
    3129.0      0.98124    
    3130.0      0.98126    
    3131.0      0.98127    
    3132.0      0.98129    
    3133.0      0.98130    
    3134.0      0.98132    
    3135.0      0.98133    
    3136.0      0.98135    
    3137.0      0.98136    
    3138.0      0.98138    
    3139.0      0.98139    
    3140.0      0.98141    
    3141.0      0.98142    
    3142.0      0.98144    
    3143.0      0.98145    
    3144.0      0.98147    
    3145.0      0.98148    
    3146.0      0.98150    
    3147.0      0.98151    
    3148.0      0.98153    
    3149.0      0.98154    
    3150.0      0.98156    
    3151.0      0.98157    
    3152.0      0.98159    
    3153.0      0.98160    
    3154.0      0.98161    
    3155.0      0.98163    
    3156.0      0.98164    
    3157.0      0.98166    
    3158.0      0.98167    
    3159.0      0.98169    
    3160.0      0.98170    
    3161.0      0.98172    
    3162.0      0.98173    
    3163.0      0.98175    
    3164.0      0.98176    
    3165.0      0.98178    
    3166.0      0.98179    
    3167.0      0.98180    
    3168.0      0.98182    
    3169.0      0.98183    
    3170.0      0.98185    
    3171.0      0.98186    
    3172.0      0.98188    
    3173.0      0.98189    
    3174.0      0.98191    
    3175.0      0.98192    
    3176.0      0.98193    
    3177.0      0.98195    
    3178.0      0.98196    
    3179.0      0.98198    
    3180.0      0.98199    
    3181.0      0.98201    
    3182.0      0.98202    
    3183.0      0.98204    
    3184.0      0.98205    
    3185.0      0.98206    
    3186.0      0.98208    
    3187.0      0.98209    
    3188.0      0.98211    
    3189.0      0.98212    
    3190.0      0.98214    
    3191.0      0.98215    
    3192.0      0.98216    
    3193.0      0.98218    
    3194.0      0.98219    
    3195.0      0.98221    
    3196.0      0.98222    
    3197.0      0.98223    
    3198.0      0.98225    
    3199.0      0.98226    
    3200.0      0.98228    
    3201.0      0.98229    
    3202.0      0.98230    
    3203.0      0.98232    
    3204.0      0.98233    
    3205.0      0.98235    
    3206.0      0.98236    
    3207.0      0.98237    
    3208.0      0.98239    
    3209.0      0.98240    
    3210.0      0.98242    
    3211.0      0.98243    
    3212.0      0.98244    
    3213.0      0.98246    
    3214.0      0.98247    
    3215.0      0.98249    
    3216.0      0.98250    
    3217.0      0.98251    
    3218.0      0.98253    
    3219.0      0.98254    
    3220.0      0.98255    
    3221.0      0.98257    
    3222.0      0.98258    
    3223.0      0.98260    
    3224.0      0.98261    
    3225.0      0.98262    
    3226.0      0.98264    
    3227.0      0.98265    
    3228.0      0.98266    
    3229.0      0.98268    
    3230.0      0.98269    
    3231.0      0.98270    
    3232.0      0.98272    
    3233.0      0.98273    
    3234.0      0.98275    
    3235.0      0.98276    
    3236.0      0.98277    
    3237.0      0.98279    
    3238.0      0.98280    
    3239.0      0.98281    
    3240.0      0.98283    
    3241.0      0.98284    
    3242.0      0.98285    
    3243.0      0.98287    
    3244.0      0.98288    
    3245.0      0.98289    
    3246.0      0.98291    
    3247.0      0.98292    
    3248.0      0.98293    
    3249.0      0.98295    
    3250.0      0.98296    
    3251.0      0.98297    
    3252.0      0.98299    
    3253.0      0.98300    
    3254.0      0.98301    
    3255.0      0.98303    
    3256.0      0.98304    
    3257.0      0.98305    
    3258.0      0.98307    
    3259.0      0.98308    
    3260.0      0.98309    
    3261.0      0.98311    
    3262.0      0.98312    
    3263.0      0.98313    
    3264.0      0.98315    
    3265.0      0.98316    
    3266.0      0.98317    
    3267.0      0.98319    
    3268.0      0.98320    
    3269.0      0.98321    
    3270.0      0.98322    
    3271.0      0.98324    
    3272.0      0.98325    
    3273.0      0.98326    
    3274.0      0.98328    
    3275.0      0.98329    
    3276.0      0.98330    
    3277.0      0.98332    
    3278.0      0.98333    
    3279.0      0.98334    
    3280.0      0.98336    
    3281.0      0.98337    
    3282.0      0.98338    
    3283.0      0.98339    
    3284.0      0.98341    
    3285.0      0.98342    
    3286.0      0.98343    
    3287.0      0.98345    
    3288.0      0.98346    
    3289.0      0.98347    
    3290.0      0.98348    
    3291.0      0.98350    
    3292.0      0.98351    
    3293.0      0.98352    
    3294.0      0.98354    
    3295.0      0.98355    
    3296.0      0.98356    
    3297.0      0.98357    
    3298.0      0.98359    
    3299.0      0.98360    
    3300.0      0.98361    
    3301.0      0.98362    
    3302.0      0.98364    
    3303.0      0.98365    
    3304.0      0.98366    
    3305.0      0.98368    
    3306.0      0.98369    
    3307.0      0.98370    
    3308.0      0.98371    
    3309.0      0.98373    
    3310.0      0.98374    
    3311.0      0.98375    
    3312.0      0.98376    
    3313.0      0.98378    
    3314.0      0.98379    
    3315.0      0.98380    
    3316.0      0.98381    
    3317.0      0.98383    
    3318.0      0.98384    
    3319.0      0.98385    
    3320.0      0.98386    
    3321.0      0.98388    
    3322.0      0.98389    
    3323.0      0.98390    
    3324.0      0.98391    
    3325.0      0.98393    
    3326.0      0.98394    
    3327.0      0.98395    
    3328.0      0.98396    
    3329.0      0.98397    
    3330.0      0.98399    
    3331.0      0.98400    
    3332.0      0.98401    
    3333.0      0.98402    
    3334.0      0.98404    
    3335.0      0.98405    
    3336.0      0.98406    
    3337.0      0.98407    
    3338.0      0.98409    
    3339.0      0.98410    
    3340.0      0.98411    
    3341.0      0.98412    
    3342.0      0.98413    
    3343.0      0.98415    
    3344.0      0.98416    
    3345.0      0.98417    
    3346.0      0.98418    
    3347.0      0.98419    
    3348.0      0.98421    
    3349.0      0.98422    
    3350.0      0.98423    
    3351.0      0.98424    
    3352.0      0.98426    
    3353.0      0.98427    
    3354.0      0.98428    
    3355.0      0.98429    
    3356.0      0.98430    
    3357.0      0.98432    
    3358.0      0.98433    
    3359.0      0.98434    
    3360.0      0.98435    
    3361.0      0.98436    
    3362.0      0.98438    
    3363.0      0.98439    
    3364.0      0.98440    
    3365.0      0.98441    
    3366.0      0.98442    
    3367.0      0.98443    
    3368.0      0.98445    
    3369.0      0.98446    
    3370.0      0.98447    
    3371.0      0.98448    
    3372.0      0.98449    
    3373.0      0.98451    
    3374.0      0.98452    
    3375.0      0.98453    
    3376.0      0.98454    
    3377.0      0.98455    
    3378.0      0.98456    
    3379.0      0.98458    
    3380.0      0.98459    
    3381.0      0.98460    
    3382.0      0.98461    
    3383.0      0.98462    
    3384.0      0.98463    
    3385.0      0.98465    
    3386.0      0.98466    
    3387.0      0.98467    
    3388.0      0.98468    
    3389.0      0.98469    
    3390.0      0.98470    
    3391.0      0.98472    
    3392.0      0.98473    
    3393.0      0.98474    
    3394.0      0.98475    
    3395.0      0.98476    
    3396.0      0.98477    
    3397.0      0.98479    
    3398.0      0.98480    
    3399.0      0.98481    
    3400.0      0.98482    
    3401.0      0.98483    
    3402.0      0.98484    
    3403.0      0.98485    
    3404.0      0.98487    
    3405.0      0.98488    
    3406.0      0.98489    
    3407.0      0.98490    
    3408.0      0.98491    
    3409.0      0.98492    
    3410.0      0.98493    
    3411.0      0.98495    
    3412.0      0.98496    
    3413.0      0.98497    
    3414.0      0.98498    
    3415.0      0.98499    
    3416.0      0.98500    
    3417.0      0.98501    
    3418.0      0.98502    
    3419.0      0.98504    
    3420.0      0.98505    
    3421.0      0.98506    
    3422.0      0.98507    
    3423.0      0.98508    
    3424.0      0.98509    
    3425.0      0.98510    
    3426.0      0.98511    
    3427.0      0.98513    
    3428.0      0.98514    
    3429.0      0.98515    
    3430.0      0.98516    
    3431.0      0.98517    
    3432.0      0.98518    
    3433.0      0.98519    
    3434.0      0.98520    
    3435.0      0.98522    
    3436.0      0.98523    
    3437.0      0.98524    
    3438.0      0.98525    
    3439.0      0.98526    
    3440.0      0.98527    
    3441.0      0.98528    
    3442.0      0.98529    
    3443.0      0.98530    
    3444.0      0.98531    
    3445.0      0.98533    
    3446.0      0.98534    
    3447.0      0.98535    
    3448.0      0.98536    
    3449.0      0.98537    
    3450.0      0.98538    
    3451.0      0.98539    
    3452.0      0.98540    
    3453.0      0.98541    
    3454.0      0.98542    
    3455.0      0.98544    
    3456.0      0.98545    
    3457.0      0.98546    
    3458.0      0.98547    
    3459.0      0.98548    
    3460.0      0.98549    
    3461.0      0.98550    
    3462.0      0.98551    
    3463.0      0.98552    
    3464.0      0.98553    
    3465.0      0.98554    
    3466.0      0.98555    
    3467.0      0.98557    
    3468.0      0.98558    
    3469.0      0.98559    
    3470.0      0.98560    
    3471.0      0.98561    
    3472.0      0.98562    
    3473.0      0.98563    
    3474.0      0.98564    
    3475.0      0.98565    
    3476.0      0.98566    
    3477.0      0.98567    
    3478.0      0.98568    
    3479.0      0.98569    
    3480.0      0.98570    
    3481.0      0.98571    
    3482.0      0.98573    
    3483.0      0.98574    
    3484.0      0.98575    
    3485.0      0.98576    
    3486.0      0.98577    
    3487.0      0.98578    
    3488.0      0.98579    
    3489.0      0.98580    
    3490.0      0.98581    
    3491.0      0.98582    
    3492.0      0.98583    
    3493.0      0.98584    
    3494.0      0.98585    
    3495.0      0.98586    
    3496.0      0.98587    
    3497.0      0.98588    
    3498.0      0.98589    
    3499.0      0.98590    
    3500.0      0.98591    
    3510.0      0.98602    
    3520.0      0.98612    
    3530.0      0.98622    
    3540.0      0.98632    
    3550.0      0.98642    
    3560.0      0.98652    
    3570.0      0.98662    
    3580.0      0.98672    
    3590.0      0.98681    
    3600.0      0.98691    
    3610.0      0.98700    
    3620.0      0.98710    
    3630.0      0.98719    
    3640.0      0.98728    
    3650.0      0.98737    
    3660.0      0.98746    
    3670.0      0.98755    
    3680.0      0.98764    
    3690.0      0.98773    
    3700.0      0.98781    
    3710.0      0.98790    
    3720.0      0.98798    
    3730.0      0.98807    
    3740.0      0.98815    
    3750.0      0.98824    
    3760.0      0.98832    
    3770.0      0.98840    
    3780.0      0.98848    
    3790.0      0.98856    
    3800.0      0.98864    
    3810.0      0.98872    
    3820.0      0.98879    
    3830.0      0.98887    
    3840.0      0.98895    
    3850.0      0.98902    
    3860.0      0.98910    
    3870.0      0.98917    
    3880.0      0.98925    
    3890.0      0.98932    
    3900.0      0.98939    
    3910.0      0.98946    
    3920.0      0.98953    
    3930.0      0.98960    
    3940.0      0.98967    
    3950.0      0.98974    
    3960.0      0.98981    
    3970.0      0.98988    
    3980.0      0.98995    
    3990.0      0.99001    
    4000.0      0.99008    
    4010.0      0.99015    
    4020.0      0.99021    
    4030.0      0.99028    
    4040.0      0.99034    
    4050.0      0.99040    
    4060.0      0.99047    
    4070.0      0.99053    
    4080.0      0.99059    
    4090.0      0.99065    
    4100.0      0.99071    
    4110.0      0.99077    
    4120.0      0.99083    
    4130.0      0.99089    
    4140.0      0.99095    
    4150.0      0.99101    
    4160.0      0.99107    
    4170.0      0.99112    
    4180.0      0.99118    
    4190.0      0.99124    
    4200.0      0.99129    
    4210.0      0.99135    
    4220.0      0.99140    
    4230.0      0.99146    
    4240.0      0.99151    
    4250.0      0.99156    
    4260.0      0.99162    
    4270.0      0.99167    
    4280.0      0.99172    
    4290.0      0.99177    
    4300.0      0.99182    
    4310.0      0.99188    
    4320.0      0.99193    
    4330.0      0.99198    
    4340.0      0.99203    
    4350.0      0.99208    
    4360.0      0.99212    
    4370.0      0.99217    
    4380.0      0.99222    
    4390.0      0.99227    
    4400.0      0.99232    
    4410.0      0.99236    
    4420.0      0.99241    
    4430.0      0.99246    
    4440.0      0.99250    
    4450.0      0.99255    
    4460.0      0.99259    
    4470.0      0.99264    
    4480.0      0.99268    
    4490.0      0.99273    
    4500.0      0.99277    
    4510.0      0.99281    
    4520.0      0.99285    
    4530.0      0.99290    
    4540.0      0.99294    
    4550.0      0.99298    
    4560.0      0.99302    
    4570.0      0.99306    
    4580.0      0.99311    
    4590.0      0.99315    
    4600.0      0.99319    
    4610.0      0.99323    
    4620.0      0.99327    
    4630.0      0.99331    
    4640.0      0.99335    
    4650.0      0.99338    
    4660.0      0.99342    
    4670.0      0.99346    
    4680.0      0.99350    
    4690.0      0.99354    
    4700.0      0.99357    
    4710.0      0.99361    
    4720.0      0.99365    
    4730.0      0.99368    
    4740.0      0.99372    
    4750.0      0.99376    
    4760.0      0.99379    
    4770.0      0.99383    
    4780.0      0.99386    
    4790.0      0.99390    
    4800.0      0.99393    
    4810.0      0.99397    
    4820.0      0.99400    
    4830.0      0.99403    
    4840.0      0.99407    
    4850.0      0.99410    
    4860.0      0.99413    
    4870.0      0.99417    
    4880.0      0.99420    
    4890.0      0.99423    
    4900.0      0.99426    
    4910.0      0.99430    
    4920.0      0.99433    
    4930.0      0.99436    
    4940.0      0.99439    
    4950.0      0.99442    
    4960.0      0.99445    
    4970.0      0.99448    
    4980.0      0.99451    
    4990.0      0.99454    
    5000.0      0.99457    
    5010.0      0.99460    
    5020.0      0.99463    
    5030.0      0.99466    
    5040.0      0.99469    
    5050.0      0.99472    
    5060.0      0.99475    
    5070.0      0.99478    
    5080.0      0.99480    
    5090.0      0.99483    
    5100.0      0.99486    
    5110.0      0.99489    
    5120.0      0.99492    
    5130.0      0.99494    
    5140.0      0.99497    
    5150.0      0.99500    
    5160.0      0.99502    
    5170.0      0.99505    
    5180.0      0.99508    
    5190.0      0.99510    
    5200.0      0.99513    
    5210.0      0.99515    
    5220.0      0.99518    
    5230.0      0.99520    
    5240.0      0.99523    
    5250.0      0.99525    
    5260.0      0.99528    
    5270.0      0.99530    
    5280.0      0.99533    
    5290.0      0.99535    
    5300.0      0.99538    
    5310.0      0.99540    
    5320.0      0.99542    
    5330.0      0.99545    
    5340.0      0.99547    
    5350.0      0.99550    
    5360.0      0.99552    
    5370.0      0.99554    
    5380.0      0.99556    
    5390.0      0.99559    
    5400.0      0.99561    
    5410.0      0.99563    
    5420.0      0.99565    
    5430.0      0.99568    
    5440.0      0.99570    
    5450.0      0.99572    
    5460.0      0.99574    
    5470.0      0.99576    
    5480.0      0.99578    
    5490.0      0.99581    
    5500.0      0.99583    
    5510.0      0.99585    
    5520.0      0.99587    
    5530.0      0.99589    
    5540.0      0.99591    
    5550.0      0.99593    
    5560.0      0.99595    
    5570.0      0.99597    
    5580.0      0.99599    
    5590.0      0.99601    
    5600.0      0.99603    
    5610.0      0.99605    
    5620.0      0.99607    
    5630.0      0.99609    
    5640.0      0.99611    
    5650.0      0.99613    
    5660.0      0.99615    
    5670.0      0.99617    
    5680.0      0.99618    
    5690.0      0.99620    
    5700.0      0.99622    
    5710.0      0.99624    
    5720.0      0.99626    
    5730.0      0.99628    
    5740.0      0.99629    
    5750.0      0.99631    
    5760.0      0.99633    
    5770.0      0.99635    
    5780.0      0.99636    
    5790.0      0.99638    
    5800.0      0.99640    
    5810.0      0.99642    
    5820.0      0.99643    
    5830.0      0.99645    
    5840.0      0.99647    
    5850.0      0.99648    
    5860.0      0.99650    
    5870.0      0.99652    
    5880.0      0.99653    
    5890.0      0.99655    
    5900.0      0.99657    
    5910.0      0.99658    
    5920.0      0.99660    
    5930.0      0.99661    
    5940.0      0.99663    
    5950.0      0.99665    
    5960.0      0.99666    
    5970.0      0.99668    
    5980.0      0.99669    
    5990.0      0.99671    
    6000.0      0.99672    
    6050.0      0.99680    
    6100.0      0.99687    
    6150.0      0.99694    
    6200.0      0.99701    
    6250.0      0.99708    
    6300.0      0.99714    
    6350.0      0.99720    
    6400.0      0.99727    
    6450.0      0.99732    
    6500.0      0.99738    
    6550.0      0.99744    
    6600.0      0.99749    
    6650.0      0.99754    
    6700.0      0.99760    
    6750.0      0.99765    
    6800.0      0.99769    
    6850.0      0.99774    
    6900.0      0.99779    
    6950.0      0.99783    
    7000.0      0.99788    
    7050.0      0.99792    
    7100.0      0.99796    
    7150.0      0.99800    
    7200.0      0.99804    
    7250.0      0.99808    
    7300.0      0.99811    
    7350.0      0.99815    
    7400.0      0.99818    
    7450.0      0.99822    
    7500.0      0.99825    
    7550.0      0.99828    
    7600.0      0.99832    
    7650.0      0.99835    
    7700.0      0.99838    
    7750.0      0.99841    
    7800.0      0.99844    
    7850.0      0.99846    
    7900.0      0.99849    
    7950.0      0.99852    
    8000.0      0.99854    
    8050.0      0.99857    
    8100.0      0.99860    
    8150.0      0.99862    
    8200.0      0.99864    
    8250.0      0.99867    
    8300.0      0.99869    
    8350.0      0.99871    
    8400.0      0.99873    
    8450.0      0.99876    
    8500.0      0.99878    
    8550.0      0.99880    
    8600.0      0.99882    
    8650.0      0.99884    
    8700.0      0.99885    
    8750.0      0.99887    
    8800.0      0.99889    
    8850.0      0.99891    
    8900.0      0.99893    
    8950.0      0.99894    
    9000.0      0.99896    
    9050.0      0.99898    
    9100.0      0.99899    
    9150.0      0.99901    
    9200.0      0.99902    
    9250.0      0.99904    
    9300.0      0.99905    
    9350.0      0.99907    
    9400.0      0.99908    
    9450.0      0.99910    
    9500.0      0.99911    
    9550.0      0.99912    
    9600.0      0.99914    
    9650.0      0.99915    
    9700.0      0.99916    
    9750.0      0.99917    
    9800.0      0.99919    
    9850.0      0.99920    
    9900.0      0.99921    
    9950.0      0.99922    
    10000.      0.99923    
    10100.      0.99925    
    10200.      0.99927    
    10300.      0.99929    
    10400.      0.99931    
    10500.      0.99933    
    10600.      0.99935    
    10700.      0.99937    
    10800.      0.99938    
    10900.      0.99940    
    11000.      0.99942    

